File: ISoD/xrd_data/Ag_Melonat.xy
2.00000 22.000
2.04500 26.000
2.09000 20.000
2.13500 19.000
2.18000 13.000
2.22500 28.000
2.27000 21.000
2.31500 19.000
2.36000 20.000
2.40500 17.000
2.45000 11.000
2.49500 12.000
2.54000 11.000
2.58500 13.000
2.63000 15.000
2.67500 13.000
2.72000 11.000
2.76500 10.000
2.81000 12.000
2.85500 12.000
2.90000 12.000
2.94500 6.000
2.99000 12.000
3.03500 12.000
3.08000 9.000
3.12500 12.000
3.17000 6.000
3.21500 7.000
3.26000 8.000
3.30500 8.000
3.35000 9.000
3.39500 10.000
3.44000 7.000
3.48500 9.000
3.53000 7.000
3.57500 8.000
3.62000 6.000
3.66500 2.000
3.71000 13.000
3.75500 11.000
3.80000 7.000
3.84500 5.000
3.89000 8.000
3.93500 6.000
3.98000 10.000
4.02500 8.000
4.07000 10.000
4.11500 8.000
4.16000 7.000
4.20500 11.000
4.25000 12.000
4.29500 5.000
4.34000 5.000
4.38500 4.000
4.43000 8.000
4.47500 6.000
4.52000 9.000
4.56500 5.000
4.61000 11.000
4.65500 6.000
4.70000 6.000
4.74500 4.000
4.79000 6.000
4.83500 11.000
4.88000 4.000
4.92500 4.000
4.97000 9.000
5.01500 8.000
5.06000 4.000
5.10500 7.000
5.15000 10.000
5.19500 8.000
5.24000 6.000
5.28500 6.000
5.33000 8.000
5.37500 9.000
5.42000 7.000
5.46500 8.000
5.51000 5.000
5.55500 5.000
5.60000 9.000
5.64500 8.000
5.69000 6.000
5.73500 6.000
5.78000 11.000
5.82500 11.000
5.87000 12.000
5.91500 7.000
5.96000 6.000
6.00500 7.000
6.05000 10.000
6.09500 9.000
6.14000 10.000
6.18500 6.000
6.23000 10.000
6.27500 6.000
6.32000 10.000
6.36500 9.000
6.41000 7.000
6.45500 8.000
6.50000 8.000
6.54500 8.000
6.59000 6.000
6.63500 7.000
6.68000 11.000
6.72500 10.000
6.77000 4.000
6.81500 11.000
6.86000 5.000
6.90500 9.000
6.95000 8.000
6.99500 5.000
7.04000 5.000
7.08500 10.000
7.13000 9.000
7.17500 8.000
7.22000 5.000
7.26500 7.000
7.31000 8.000
7.35500 5.000
7.40000 4.000
7.44500 8.000
7.49000 6.000
7.53500 6.000
7.58000 3.000
7.62500 10.000
7.67000 6.000
7.71500 8.000
7.76000 10.000
7.80500 8.000
7.85000 7.000
7.89500 11.000
7.94000 10.000
7.98500 4.000
8.03000 10.000
8.07500 11.000
8.12000 8.000
8.16500 5.000
8.21000 8.000
8.25500 7.000
8.30000 7.000
8.34500 10.000
8.39000 10.000
8.43500 6.000
8.48000 6.000
8.52500 6.000
8.57000 8.000
8.61500 8.000
8.66000 11.000
8.70500 8.000
8.75000 10.000
8.79500 5.000
8.84000 11.000
8.88500 11.000
8.93000 6.000
8.97500 10.000
9.02000 6.000
9.06500 8.000
9.11000 6.000
9.15500 8.000
9.20000 8.000
9.24500 10.000
9.29000 15.000
9.33500 7.000
9.38000 10.000
9.42500 9.000
9.47000 13.000
9.51500 10.000
9.56000 6.000
9.60500 12.000
9.65000 9.000
9.69500 9.000
9.74000 10.000
9.78500 9.000
9.83000 9.000
9.87500 10.000
9.92000 7.000
9.96500 9.000
10.01000 11.000
10.05500 8.000
10.10000 10.000
10.14500 8.000
10.19000 8.000
10.23500 8.000
10.28000 6.000
10.32500 9.000
10.37000 10.000
10.41500 8.000
10.46000 13.000
10.50500 8.000
10.55000 9.000
10.59500 8.000
10.64000 5.000
10.68500 8.000
10.73000 11.000
10.77500 6.000
10.82000 9.000
10.86500 4.000
10.91000 10.000
10.95500 11.000
11.00000 9.000
11.04500 11.000
11.09000 7.000
11.13500 6.000
11.18000 7.000
11.22500 7.000
11.27000 14.000
11.31500 5.000
11.36000 12.000
11.40500 10.000
11.45000 9.000
11.49500 10.000
11.54000 11.000
11.58500 10.000
11.63000 13.000
11.67500 9.000
11.72000 8.000
11.76500 8.000
11.81000 5.000
11.85500 10.000
11.90000 10.000
11.94500 6.000
11.99000 7.000
12.03500 14.000
12.08000 13.000
12.12500 11.000
12.17000 7.000
12.21500 8.000
12.26000 10.000
12.30500 8.000
12.35000 11.000
12.39500 9.000
12.44000 6.000
12.48500 10.000
12.53000 13.000
12.57500 9.000
12.62000 10.000
12.66500 12.000
12.71000 13.000
12.75500 11.000
12.80000 8.000
12.84500 16.000
12.89000 9.000
12.93500 5.000
12.98000 11.000
13.02500 10.000
13.07000 10.000
13.11500 6.000
13.16000 8.000
13.20500 14.000
13.25000 8.000
13.29500 11.000
13.34000 7.000
13.38500 11.000
13.43000 9.000
13.47500 11.000
13.52000 8.000
13.56500 7.000
13.61000 11.000
13.65500 4.000
13.70000 9.000
13.74500 10.000
13.79000 6.000
13.83500 9.000
13.88000 8.000
13.92500 13.000
13.97000 13.000
14.01500 10.000
14.06000 12.000
14.10500 17.000
14.15000 14.000
14.19500 6.000
14.24000 13.000
14.28500 16.000
14.33000 13.000
14.37500 8.000
14.42000 8.000
14.46500 4.000
14.51000 10.000
14.55500 11.000
14.60000 11.000
14.64500 14.000
14.69000 8.000
14.73500 13.000
14.78000 10.000
14.82500 9.000
14.87000 9.000
14.91500 10.000
14.96000 12.000
15.00500 9.000
15.05000 11.000
15.09500 4.000
15.14000 14.000
15.18500 8.000
15.23000 7.000
15.27500 8.000
15.32000 12.000
15.36500 18.000
15.41000 9.000
15.45500 8.000
15.50000 6.000
15.54500 12.000
15.59000 11.000
15.63500 10.000
15.68000 9.000
15.72500 13.000
15.77000 6.000
15.81500 7.000
15.86000 7.000
15.90500 13.000
15.95000 10.000
15.99500 7.000
16.04000 11.000
16.08500 13.000
16.13000 10.000
16.17500 8.000
16.22000 8.000
16.26500 12.000
16.31000 12.000
16.35500 8.000
16.40000 8.000
16.44500 12.000
16.49000 10.000
16.53500 7.000
16.58000 12.000
16.62500 9.000
16.67000 9.000
16.71500 6.000
16.76000 12.000
16.80500 7.000
16.85000 7.000
16.89500 11.000
16.94000 6.000
16.98500 10.000
17.03000 12.000
17.07500 12.000
17.12000 11.000
17.16500 14.000
17.21000 10.000
17.25500 9.000
17.30000 11.000
17.34500 13.000
17.39000 11.000
17.43500 8.000
17.48000 9.000
17.52500 9.000
17.57000 12.000
17.61500 10.000
17.66000 7.000
17.70500 7.000
17.75000 10.000
17.79500 9.000
17.84000 11.000
17.88500 12.000
17.93000 9.000
17.97500 13.000
18.02000 9.000
18.06500 14.000
18.11000 11.000
18.15500 6.000
18.20000 6.000
18.24500 9.000
18.29000 10.000
18.33500 13.000
18.38000 9.000
18.42500 9.000
18.47000 9.000
18.51500 11.000
18.56000 12.000
18.60500 11.000
18.65000 12.000
18.69500 9.000
18.74000 15.000
18.78500 7.000
18.83000 12.000
18.87500 6.000
18.92000 8.000
18.96500 9.000
19.01000 8.000
19.05500 10.000
19.10000 9.000
19.14500 15.000
19.19000 8.000
19.23500 12.000
19.28000 7.000
19.32500 11.000
19.37000 6.000
19.41500 11.000
19.46000 10.000
19.50500 8.000
19.55000 11.000
19.59500 7.000
19.64000 7.000
19.68500 12.000
19.73000 9.000
19.77500 12.000
19.82000 6.000
19.86500 12.000
19.91000 7.000
19.95500 12.000
20.00000 10.000
20.04500 5.000
20.09000 8.000
20.13500 7.000
20.18000 14.000
20.22500 12.000
20.27000 11.000
20.31500 9.000
20.36000 10.000
20.40500 9.000
20.45000 7.000
20.49500 18.000
20.54000 9.000
20.58500 8.000
20.63000 6.000
20.67500 13.000
20.72000 9.000
20.76500 10.000
20.81000 9.000
20.85500 6.000
20.90000 10.000
20.94500 4.000
20.99000 6.000
21.03500 10.000
21.08000 8.000
21.12500 7.000
21.17000 7.000
21.21500 10.000
21.26000 11.000
21.30500 7.000
21.35000 13.000
21.39500 9.000
21.44000 8.000
21.48500 10.000
21.53000 7.000
21.57500 11.000
21.62000 12.000
21.66500 7.000
21.71000 9.000
21.75500 6.000
21.80000 8.000
21.84500 6.000
21.89000 10.000
21.93500 6.000
21.98000 7.000
22.02500 11.000
22.07000 9.000
22.11500 9.000
22.16000 8.000
22.20500 10.000
22.25000 11.000
22.29500 8.000
22.34000 14.000
22.38500 7.000
22.43000 9.000
22.47500 10.000
22.52000 7.000
22.56500 10.000
22.61000 10.000
22.65500 5.000
22.70000 7.000
22.74500 9.000
22.79000 7.000
22.83500 12.000
22.88000 9.000
22.92500 8.000
22.97000 5.000
23.01500 3.000
23.06000 6.000
23.10500 4.000
23.15000 8.000
23.19500 8.000
23.24000 6.000
23.28500 9.000
23.33000 8.000
23.37500 9.000
23.42000 6.000
23.46500 9.000
23.51000 8.000
23.55500 12.000
23.60000 6.000
23.64500 10.000
23.69000 6.000
23.73500 12.000
23.78000 11.000
23.82500 8.000
23.87000 8.000
23.91500 12.000
23.96000 7.000
24.00500 11.000
24.05000 10.000
24.09500 12.000
24.14000 5.000
24.18500 9.000
24.23000 12.000
24.27500 14.000
24.32000 10.000
24.36500 7.000
24.41000 9.000
24.45500 4.000
24.50000 15.000
24.54500 13.000
24.59000 10.000
24.63500 8.000
24.68000 11.000
24.72500 7.000
24.77000 8.000
24.81500 7.000
24.86000 12.000
24.90500 8.000
24.95000 9.000
24.99500 9.000
25.04000 13.000
25.08500 11.000
25.13000 7.000
25.17500 6.000
25.22000 11.000
25.26500 10.000
25.31000 8.000
25.35500 13.000
25.40000 10.000
25.44500 12.000
25.49000 9.000
25.53500 9.000
25.58000 9.000
25.62500 13.000
25.67000 9.000
25.71500 13.000
25.76000 16.000
25.80500 8.000
25.85000 13.000
25.89500 8.000
25.94000 7.000
25.98500 12.000
26.03000 11.000
26.07500 12.000
26.12000 6.000
26.16500 11.000
26.21000 13.000
26.25500 15.000
26.30000 11.000
26.34500 10.000
26.39000 12.000
26.43500 9.000
26.48000 13.000
26.52500 11.000
26.57000 9.000
26.61500 9.000
26.66000 10.000
26.70500 14.000
26.75000 16.000
26.79500 8.000
26.84000 5.000
26.88500 12.000
26.93000 18.000
26.97500 11.000
27.02000 10.000
27.06500 8.000
27.11000 12.000
27.15500 16.000
27.20000 8.000
27.24500 13.000
27.29000 15.000
27.33500 9.000
27.38000 11.000
27.42500 11.000
27.47000 19.000
27.51500 13.000
27.56000 15.000
27.60500 16.000
27.65000 16.000
27.69500 13.000
27.74000 10.000
27.78500 7.000
27.83000 12.000
27.87500 13.000
27.92000 11.000
27.96500 12.000
28.01000 12.000
28.05500 14.000
28.10000 15.000
28.14500 14.000
28.19000 14.000
28.23500 11.000
28.28000 10.000
28.32500 11.000
28.37000 12.000
28.41500 16.000
28.46000 15.000
28.50500 16.000
28.55000 15.000
28.59500 15.000
28.64000 13.000
28.68500 11.000
28.73000 10.000
28.77500 9.000
28.82000 19.000
28.86500 10.000
28.91000 12.000
28.95500 11.000
29.00000 17.000
29.04500 13.000
29.09000 17.000
29.13500 12.000
29.18000 12.000
29.22500 11.000
29.27000 15.000
29.31500 14.000
29.36000 9.000
29.40500 16.000
29.45000 10.000
29.49500 10.000
29.54000 16.000
29.58500 12.000
29.63000 12.000
29.67500 11.000
29.72000 14.000
29.76500 13.000
29.81000 12.000
29.85500 15.000
29.90000 13.000
29.94500 8.000
29.99000 12.000
30.03500 11.000
30.08000 9.000
30.12500 13.000
30.17000 11.000
30.21500 11.000
30.26000 17.000
30.30500 16.000
30.35000 11.000
30.39500 8.000
30.44000 10.000
30.48500 9.000
30.53000 9.000
30.57500 11.000
30.62000 11.000
30.66500 9.000
30.71000 16.000
30.75500 13.000
30.80000 6.000
30.84500 8.000
30.89000 16.000
30.93500 14.000
30.98000 10.000
31.02500 7.000
31.07000 12.000
31.11500 9.000
31.16000 12.000
31.20500 15.000
31.25000 12.000
31.29500 14.000
31.34000 10.000
31.38500 9.000
31.43000 11.000
31.47500 13.000
31.52000 13.000
31.56500 12.000
31.61000 13.000
31.65500 10.000
31.70000 9.000
31.74500 14.000
31.79000 7.000
31.83500 14.000
31.88000 4.000
31.92500 16.000
31.97000 12.000
32.01500 10.000
32.06000 9.000
32.10500 9.000
32.15000 8.000
32.19500 7.000
32.24000 11.000
32.28500 12.000
32.33000 10.000
32.37500 8.000
32.42000 16.000
32.46500 8.000
32.51000 13.000
32.55500 7.000
32.60000 11.000
32.64500 17.000
32.69000 10.000
32.73500 9.000
32.78000 10.000
32.82500 13.000
32.87000 10.000
32.91500 11.000
32.96000 13.000
33.00500 9.000
33.05000 4.000
33.09500 7.000
33.14000 11.000
33.18500 12.000
33.23000 5.000
33.27500 12.000
33.32000 9.000
33.36500 13.000
33.41000 7.000
33.45500 8.000
33.50000 10.000
33.54500 11.000
33.59000 10.000
33.63500 10.000
33.68000 12.000
33.72500 14.000
33.77000 12.000
33.81500 12.000
33.86000 11.000
33.90500 9.000
33.95000 12.000
33.99500 8.000
34.04000 12.000
34.08500 7.000
34.13000 8.000
34.17500 8.000
34.22000 8.000
34.26500 9.000
34.31000 11.000
34.35500 10.000
34.40000 12.000
34.44500 6.000
34.49000 10.000
34.53500 11.000
34.58000 9.000
34.62500 8.000
34.67000 10.000
34.71500 9.000
34.76000 10.000
34.80500 10.000
34.85000 6.000
34.89500 12.000
34.94000 6.000
34.98500 10.000
35.03000 7.000
35.07500 8.000
35.12000 11.000
35.16500 10.000
35.21000 13.000
35.25500 6.000
35.30000 10.000
35.34500 12.000
35.39000 12.000
35.43500 11.000
35.48000 8.000
35.52500 13.000
35.57000 9.000
35.61500 9.000
35.66000 7.000
35.70500 5.000
35.75000 10.000
35.79500 5.000
35.84000 7.000
35.88500 9.000
35.93000 7.000
35.97500 14.000
36.02000 9.000
36.06500 9.000
36.11000 9.000
36.15500 7.000
36.20000 11.000
36.24500 9.000
36.29000 13.000
36.33500 7.000
36.38000 15.000
36.42500 5.000
36.47000 10.000
36.51500 7.000
36.56000 11.000
36.60500 14.000
36.65000 9.000
36.69500 10.000
36.74000 5.000
36.78500 9.000
36.83000 12.000
36.87500 13.000
36.92000 11.000
36.96500 8.000
37.01000 7.000
37.05500 11.000
37.10000 16.000
37.14500 8.000
37.19000 11.000
37.23500 13.000
37.28000 6.000
37.32500 12.000
37.37000 13.000
37.41500 12.000
37.46000 9.000
37.50500 7.000
37.55000 12.000
37.59500 12.000
37.64000 13.000
37.68500 10.000
37.73000 9.000
37.77500 9.000
37.82000 8.000
37.86500 8.000
37.91000 7.000
37.95500 12.000
38.00000 10.000
38.04500 10.000
38.09000 9.000
38.13500 10.000
38.18000 10.000
38.22500 12.000
38.27000 13.000
38.31500 9.000
38.36000 14.000
38.40500 10.000
38.45000 9.000
38.49500 10.000
38.54000 9.000
38.58500 10.000
38.63000 9.000
38.67500 9.000
38.72000 9.000
38.76500 8.000
38.81000 9.000
38.85500 7.000
38.90000 12.000
38.94500 5.000
38.99000 10.000
39.03500 5.000
39.08000 8.000
39.12500 12.000
39.17000 15.000
39.21500 6.000
39.26000 7.000
39.30500 8.000
39.35000 9.000
39.39500 11.000
39.44000 11.000
39.48500 13.000
39.53000 13.000
39.57500 10.000
39.62000 13.000
39.66500 8.000
39.71000 7.000
39.75500 9.000
39.80000 11.000
39.84500 7.000
39.89000 15.000
39.93500 12.000
39.98000 11.000
40.02500 11.000
40.07000 11.000
40.11500 6.000
40.16000 12.000
40.20500 10.000
40.25000 9.000
40.29500 9.000
40.34000 12.000
40.38500 9.000
40.43000 8.000
40.47500 9.000
40.52000 13.000
40.56500 10.000
40.61000 14.000
40.65500 10.000
40.70000 17.000
40.74500 14.000
40.79000 13.000
40.83500 8.000
40.88000 7.000
40.92500 6.000
40.97000 14.000
41.01500 7.000
41.06000 10.000
41.10500 7.000
41.15000 7.000
41.19500 13.000
41.24000 10.000
41.28500 14.000
41.33000 7.000
41.37500 11.000
41.42000 11.000
41.46500 12.000
41.51000 6.000
41.55500 12.000
41.60000 11.000
41.64500 10.000
41.69000 13.000
41.73500 9.000
41.78000 10.000
41.82500 15.000
41.87000 8.000
41.91500 12.000
41.96000 9.000
42.00500 9.000
42.05000 11.000
42.09500 6.000
42.14000 11.000
42.18500 9.000
42.23000 5.000
42.27500 9.000
42.32000 7.000
42.36500 5.000
42.41000 11.000
42.45500 13.000
42.50000 10.000
42.54500 9.000
42.59000 17.000
42.63500 8.000
42.68000 4.000
42.72500 7.000
42.77000 11.000
42.81500 11.000
42.86000 9.000
42.90500 11.000
42.95000 9.000
42.99500 9.000
43.04000 11.000
43.08500 10.000
43.13000 10.000
43.17500 10.000
43.22000 6.000
43.26500 7.000
43.31000 9.000
43.35500 8.000
43.40000 9.000
43.44500 12.000
43.49000 14.000
43.53500 10.000
43.58000 11.000
43.62500 9.000
43.67000 6.000
43.71500 8.000
43.76000 6.000
43.80500 9.000
43.85000 10.000
43.89500 10.000
43.94000 9.000
43.98500 9.000
44.03000 9.000
44.07500 8.000
44.12000 10.000
44.16500 5.000
44.21000 10.000
44.25500 11.000
44.30000 11.000
44.34500 8.000
44.39000 8.000
44.43500 13.000
44.48000 9.000
44.52500 12.000
44.57000 9.000
44.61500 8.000
44.66000 9.000
44.70500 3.000
44.75000 10.000
44.79500 5.000
44.84000 12.000
44.88500 9.000
44.93000 5.000
44.97500 12.000
45.02000 10.000
45.06500 5.000
45.11000 12.000
45.15500 8.000
45.20000 8.000
45.24500 11.000
45.29000 6.000
45.33500 13.000
45.38000 11.000
45.42500 6.000
45.47000 7.000
45.51500 7.000
45.56000 10.000
45.60500 10.000
45.65000 13.000
45.69500 12.000
45.74000 12.000
45.78500 12.000
45.83000 12.000
45.87500 7.000
45.92000 9.000
45.96500 8.000
46.01000 9.000
46.05500 12.000
46.10000 10.000
46.14500 8.000
46.19000 10.000
46.23500 8.000
46.28000 5.000
46.32500 9.000
46.37000 8.000
46.41500 11.000
46.46000 13.000
46.50500 17.000
46.55000 13.000
46.59500 10.000
46.64000 9.000
46.68500 4.000
46.73000 8.000
46.77500 12.000
46.82000 11.000
46.86500 7.000
46.91000 6.000
46.95500 9.000
47.00000 13.000
47.04500 8.000
47.09000 12.000
47.13500 8.000
47.18000 12.000
47.22500 9.000
47.27000 8.000
47.31500 8.000
47.36000 11.000
47.40500 7.000
47.45000 13.000
47.49500 8.000
47.54000 10.000
47.58500 10.000
47.63000 6.000
47.67500 7.000
47.72000 12.000
47.76500 9.000
47.81000 9.000
47.85500 8.000
47.90000 8.000
47.94500 8.000
47.99000 8.000
48.03500 12.000
48.08000 12.000
48.12500 14.000
48.17000 14.000
48.21500 7.000
48.26000 10.000
48.30500 11.000
48.35000 11.000
48.39500 9.000
48.44000 10.000
48.48500 10.000
48.53000 7.000
48.57500 10.000
48.62000 10.000
48.66500 15.000
48.71000 9.000
48.75500 10.000
48.80000 14.000
48.84500 9.000
48.89000 9.000
48.93500 11.000
48.98000 15.000
49.02500 4.000
49.07000 10.000
49.11500 14.000
49.16000 14.000
49.20500 11.000
49.25000 12.000
49.29500 10.000
49.34000 6.000
49.38500 14.000
49.43000 11.000
49.47500 14.000
49.52000 14.000
49.56500 10.000
49.61000 10.000
49.65500 9.000
49.70000 11.000
49.74500 7.000
49.79000 8.000
49.83500 8.000
49.88000 12.000
49.92500 13.000
49.97000 10.000
50.01500 10.000
50.06000 11.000
50.10500 9.000
50.15000 12.000
50.19500 13.000
50.24000 15.000
50.28500 13.000
50.33000 10.000
50.37500 12.000
50.42000 9.000
50.46500 8.000
50.51000 11.000
50.55500 12.000
50.60000 9.000
50.64500 7.000
50.69000 10.000
50.73500 10.000
50.78000 7.000
50.82500 9.000
50.87000 10.000
50.91500 8.000
50.96000 15.000
51.00500 9.000
51.05000 12.000
51.09500 11.000
51.14000 7.000
51.18500 8.000
51.23000 10.000
51.27500 7.000
51.32000 10.000
51.36500 9.000
51.41000 12.000
51.45500 8.000
51.50000 10.000
51.54500 10.000
51.59000 6.000
51.63500 11.000
51.68000 16.000
51.72500 12.000
51.77000 10.000
51.81500 8.000
51.86000 14.000
51.90500 10.000
51.95000 4.000
51.99500 16.000
52.04000 11.000
52.08500 8.000
52.13000 7.000
52.17500 12.000
52.22000 8.000
52.26500 15.000
52.31000 10.000
52.35500 7.000
52.40000 10.000
52.44500 10.000
52.49000 7.000
52.53500 6.000
52.58000 10.000
52.62500 9.000
52.67000 9.000
52.71500 16.000
52.76000 6.000
52.80500 11.000
52.85000 6.000
52.89500 18.000
52.94000 11.000
52.98500 9.000
53.03000 6.000
53.07500 11.000
53.12000 8.000
53.16500 12.000
53.21000 6.000
53.25500 6.000
53.30000 7.000
53.34500 10.000
53.39000 12.000
53.43500 8.000
53.48000 11.000
53.52500 7.000
53.57000 8.000
53.61500 9.000
53.66000 11.000
53.70500 9.000
53.75000 8.000
53.79500 10.000
53.84000 10.000
53.88500 8.000
53.93000 8.000
53.97500 6.000
54.02000 13.000
54.06500 7.000
54.11000 12.000
54.15500 13.000
54.20000 6.000
54.24500 9.000
54.29000 9.000
54.33500 11.000
54.38000 9.000
54.42500 11.000
54.47000 9.000
54.48500 11.000