File: ISoD/xrd_data/HSC032.xy
2.00000 1.000
2.04500 2.000
2.09000 4.000
2.13500 4.000
2.18000 5.000
2.22500 4.000
2.27000 4.000
2.31500 6.000
2.36000 3.000
2.40500 6.000
2.45000 2.000
2.49500 1.000
2.54000 3.000
2.58500 3.000
2.63000 3.000
2.67500 3.000
2.72000 4.000
2.76500 4.000
2.81000 1.000
2.85500 8.000
2.90000 13.000
2.94500 38.000
2.99000 411.000
3.03500 956.000
3.08000 1382.000
3.12500 1556.000
3.17000 1510.000
3.21500 1493.000
3.26000 1514.000
3.30500 1410.000
3.35000 1389.000
3.39500 1366.000
3.44000 1328.000
3.48500 1268.000
3.53000 1283.000
3.57500 1232.000
3.62000 1225.000
3.66500 1118.000
3.71000 1146.000
3.75500 1175.000
3.80000 1164.000
3.84500 1094.000
3.89000 1109.000
3.93500 1076.000
3.98000 1026.000
4.02500 1014.000
4.07000 1029.000
4.11500 959.000
4.16000 975.000
4.20500 906.000
4.25000 914.000
4.29500 906.000
4.34000 881.000
4.38500 844.000
4.43000 843.000
4.47500 835.000
4.52000 829.000
4.56500 841.000
4.61000 803.000
4.65500 855.000
4.70000 782.000
4.74500 788.000
4.79000 782.000
4.83500 752.000
4.88000 761.000
4.92500 767.000
4.97000 737.000
5.01500 697.000
5.06000 712.000
5.10500 738.000
5.15000 712.000
5.19500 685.000
5.24000 684.000
5.28500 671.000
5.33000 677.000
5.37500 614.000
5.42000 659.000
5.46500 616.000
5.51000 633.000
5.55500 644.000
5.60000 647.000
5.64500 585.000
5.69000 610.000
5.73500 605.000
5.78000 598.000
5.82500 586.000
5.87000 592.000
5.91500 584.000
5.96000 550.000
6.00500 599.000
6.05000 541.000
6.09500 564.000
6.14000 539.000
6.18500 542.000
6.23000 547.000
6.27500 522.000
6.32000 522.000
6.36500 531.000
6.41000 553.000
6.45500 524.000
6.50000 532.000
6.54500 520.000
6.59000 516.000
6.63500 501.000
6.68000 508.000
6.72500 526.000
6.77000 481.000
6.81500 502.000
6.86000 522.000
6.90500 500.000
6.95000 484.000
6.99500 507.000
7.04000 446.000
7.08500 504.000
7.13000 485.000
7.17500 460.000
7.22000 489.000
7.26500 488.000
7.31000 484.000
7.35500 467.000
7.40000 477.000
7.44500 478.000
7.49000 449.000
7.53500 469.000
7.58000 446.000
7.62500 469.000
7.67000 457.000
7.71500 468.000
7.76000 450.000
7.80500 433.000
7.85000 444.000
7.89500 453.000
7.94000 432.000
7.98500 431.000
8.03000 440.000
8.07500 444.000
8.12000 483.000
8.16500 462.000
8.21000 457.000
8.25500 483.000
8.30000 430.000
8.34500 457.000
8.39000 431.000
8.43500 430.000
8.48000 419.000
8.52500 432.000
8.57000 437.000
8.61500 382.000
8.66000 405.000
8.70500 387.000
8.75000 421.000
8.79500 432.000
8.84000 413.000
8.88500 422.000
8.93000 413.000
8.97500 427.000
9.02000 427.000
9.06500 430.000
9.11000 402.000
9.15500 389.000
9.20000 420.000
9.24500 410.000
9.29000 427.000
9.33500 418.000
9.38000 399.000
9.42500 432.000
9.47000 409.000
9.51500 425.000
9.56000 413.000
9.60500 413.000
9.65000 373.000
9.69500 456.000
9.74000 421.000
9.78500 404.000
9.83000 405.000
9.87500 388.000
9.92000 404.000
9.96500 409.000
10.01000 408.000
10.05500 405.000
10.10000 402.000
10.14500 417.000
10.19000 420.000
10.23500 379.000
10.28000 395.000
10.32500 413.000
10.37000 395.000
10.41500 424.000
10.46000 376.000
10.50500 395.000
10.55000 381.000
10.59500 379.000
10.64000 396.000
10.68500 395.000
10.73000 387.000
10.77500 389.000
10.82000 399.000
10.86500 387.000
10.91000 374.000
10.95500 388.000
11.00000 396.000
11.04500 383.000
11.09000 393.000
11.13500 411.000
11.18000 409.000
11.22500 386.000
11.27000 377.000
11.31500 376.000
11.36000 386.000
11.40500 372.000
11.45000 415.000
11.49500 408.000
11.54000 381.000
11.58500 384.000
11.63000 354.000
11.67500 420.000
11.72000 397.000
11.76500 364.000
11.81000 361.000
11.85500 387.000
11.90000 392.000
11.94500 388.000
11.99000 391.000
12.03500 393.000
12.08000 418.000
12.12500 371.000
12.17000 418.000
12.21500 374.000
12.26000 360.000
12.30500 379.000
12.35000 371.000
12.39500 361.000
12.44000 408.000
12.48500 372.000
12.53000 403.000
12.57500 359.000
12.62000 382.000
12.66500 365.000
12.71000 396.000
12.75500 382.000
12.80000 379.000
12.84500 376.000
12.89000 393.000
12.93500 373.000
12.98000 385.000
13.02500 374.000
13.07000 365.000
13.11500 372.000
13.16000 392.000
13.20500 363.000
13.25000 378.000
13.29500 357.000
13.34000 393.000
13.38500 381.000
13.43000 358.000
13.47500 384.000
13.52000 355.000
13.56500 378.000
13.61000 370.000
13.65500 369.000
13.70000 357.000
13.74500 355.000
13.79000 376.000
13.83500 408.000
13.88000 375.000
13.92500 366.000
13.97000 397.000
14.01500 384.000
14.06000 395.000
14.10500 363.000
14.15000 356.000
14.19500 400.000
14.24000 347.000
14.28500 366.000
14.33000 382.000
14.37500 357.000
14.42000 367.000
14.46500 344.000
14.51000 366.000
14.55500 356.000
14.60000 372.000
14.64500 365.000
14.69000 350.000
14.73500 391.000
14.78000 364.000
14.82500 376.000
14.87000 376.000
14.91500 372.000
14.96000 368.000
15.00500 375.000
15.05000 381.000
15.09500 365.000
15.14000 371.000
15.18500 360.000
15.23000 373.000
15.27500 363.000
15.32000 364.000
15.36500 380.000
15.41000 353.000
15.45500 362.000
15.50000 362.000
15.54500 370.000
15.59000 371.000
15.63500 356.000
15.68000 351.000
15.72500 392.000
15.77000 363.000
15.81500 349.000
15.86000 349.000
15.90500 361.000
15.95000 349.000
15.99500 402.000
16.04000 350.000
16.08500 372.000
16.13000 390.000
16.17500 362.000
16.22000 390.000
16.26500 326.000
16.31000 371.000
16.35500 379.000
16.40000 353.000
16.44500 354.000
16.49000 370.000
16.53500 365.000
16.58000 378.000
16.62500 354.000
16.67000 389.000
16.71500 368.000
16.76000 352.000
16.80500 353.000
16.85000 351.000
16.89500 363.000
16.94000 374.000
16.98500 368.000
17.03000 387.000
17.07500 349.000
17.12000 398.000
17.16500 397.000
17.21000 351.000
17.25500 359.000
17.30000 369.000
17.34500 367.000
17.39000 362.000
17.43500 377.000
17.48000 357.000
17.52500 378.000
17.57000 355.000
17.61500 355.000
17.66000 321.000
17.70500 398.000
17.75000 375.000
17.79500 368.000
17.84000 338.000
17.88500 354.000
17.93000 390.000
17.97500 369.000
18.02000 392.000
18.06500 355.000
18.11000 389.000
18.15500 373.000
18.20000 388.000
18.24500 384.000
18.29000 363.000
18.33500 384.000
18.38000 380.000
18.42500 388.000
18.47000 371.000
18.51500 413.000
18.56000 382.000
18.60500 381.000
18.65000 363.000
18.69500 401.000
18.74000 410.000
18.78500 387.000
18.83000 401.000
18.87500 386.000
18.92000 387.000
18.96500 384.000
19.01000 402.000
19.05500 406.000
19.10000 389.000
19.14500 420.000
19.19000 407.000
19.23500 389.000
19.28000 394.000
19.32500 409.000
19.37000 387.000
19.41500 390.000
19.46000 412.000
19.50500 402.000
19.55000 393.000
19.59500 413.000
19.64000 403.000
19.68500 393.000
19.73000 405.000
19.77500 408.000
19.82000 426.000
19.86500 417.000
19.91000 388.000
19.95500 384.000
20.00000 425.000
20.04500 404.000
20.09000 413.000
20.13500 451.000
20.18000 397.000
20.22500 429.000
20.27000 401.000
20.31500 410.000
20.36000 409.000
20.40500 394.000
20.45000 406.000
20.49500 442.000
20.54000 395.000
20.58500 387.000
20.63000 410.000
20.67500 422.000
20.72000 427.000
20.76500 390.000
20.81000 408.000
20.85500 450.000
20.90000 433.000
20.94500 433.000
20.99000 426.000
21.03500 422.000
21.08000 395.000
21.12500 442.000
21.17000 431.000
21.21500 452.000
21.26000 421.000
21.30500 410.000
21.35000 420.000
21.39500 425.000
21.44000 424.000
21.48500 394.000
21.53000 440.000
21.57500 416.000
21.62000 435.000
21.66500 462.000
21.71000 451.000
21.75500 436.000
21.80000 404.000
21.84500 428.000
21.89000 400.000
21.93500 459.000
21.98000 436.000
22.02500 410.000
22.07000 438.000
22.11500 420.000
22.16000 446.000
22.20500 445.000
22.25000 460.000
22.29500 419.000
22.34000 444.000
22.38500 465.000
22.43000 439.000
22.47500 446.000
22.52000 425.000
22.56500 451.000
22.61000 401.000
22.65500 457.000
22.70000 464.000
22.74500 408.000
22.79000 446.000
22.83500 455.000
22.88000 438.000
22.92500 443.000
22.97000 433.000
23.01500 464.000
23.06000 458.000
23.10500 453.000
23.15000 467.000
23.19500 441.000
23.24000 451.000
23.28500 466.000
23.33000 451.000
23.37500 427.000
23.42000 446.000
23.46500 459.000
23.51000 448.000
23.55500 439.000
23.60000 472.000
23.64500 441.000
23.69000 469.000
23.73500 416.000
23.78000 450.000
23.82500 430.000
23.87000 456.000
23.91500 451.000
23.96000 483.000
24.00500 476.000
24.05000 460.000
24.09500 447.000
24.14000 445.000
24.18500 431.000
24.23000 447.000
24.27500 444.000
24.32000 452.000
24.36500 448.000
24.41000 456.000
24.45500 431.000
24.50000 462.000
24.54500 465.000
24.59000 441.000
24.63500 480.000
24.68000 429.000
24.72500 439.000
24.77000 491.000
24.81500 473.000
24.86000 418.000
24.90500 443.000
24.95000 429.000
24.99500 467.000
25.04000 446.000
25.08500 461.000
25.13000 469.000
25.17500 474.000
25.22000 452.000
25.26500 451.000
25.31000 472.000
25.35500 446.000
25.40000 462.000
25.44500 461.000
25.49000 499.000
25.53500 450.000
25.58000 435.000
25.62500 431.000
25.67000 440.000
25.71500 451.000
25.76000 438.000
25.80500 449.000
25.85000 450.000
25.89500 416.000
25.94000 444.000
25.98500 447.000
26.03000 422.000
26.07500 436.000
26.12000 441.000
26.16500 439.000
26.21000 439.000
26.25500 435.000
26.30000 434.000
26.34500 426.000
26.39000 435.000
26.43500 428.000
26.48000 412.000
26.52500 424.000
26.57000 439.000
26.61500 414.000
26.66000 426.000
26.70500 452.000
26.75000 427.000
26.79500 425.000
26.84000 425.000
26.88500 399.000
26.93000 450.000
26.97500 446.000
27.02000 438.000
27.06500 406.000
27.11000 468.000
27.15500 402.000
27.20000 416.000
27.24500 397.000
27.29000 404.000
27.33500 418.000
27.38000 408.000
27.42500 400.000
27.47000 403.000
27.51500 426.000
27.56000 396.000
27.60500 355.000
27.65000 398.000
27.69500 400.000
27.74000 381.000
27.78500 379.000
27.83000 383.000
27.87500 415.000
27.92000 378.000
27.96500 431.000
28.01000 396.000
28.05500 375.000
28.10000 374.000
28.14500 397.000
28.19000 385.000
28.23500 403.000
28.28000 390.000
28.32500 402.000
28.37000 408.000
28.41500 355.000
28.46000 391.000
28.50500 359.000
28.55000 374.000
28.59500 388.000
28.64000 360.000
28.68500 379.000
28.73000 368.000
28.77500 373.000
28.82000 381.000
28.86500 329.000
28.91000 347.000
28.95500 372.000
29.00000 356.000
29.04500 369.000
29.09000 371.000
29.13500 373.000
29.18000 343.000
29.22500 357.000
29.27000 386.000
29.31500 332.000
29.36000 358.000
29.40500 355.000
29.45000 339.000
29.49500 330.000
29.54000 358.000
29.58500 328.000
29.63000 342.000
29.67500 347.000
29.72000 338.000
29.76500 337.000
29.81000 348.000
29.85500 338.000
29.90000 352.000
29.94500 342.000
29.99000 336.000
30.03500 345.000
30.08000 328.000
30.12500 309.000
30.17000 332.000
30.21500 340.000
30.26000 324.000
30.30500 349.000
30.35000 343.000
30.39500 331.000
30.44000 319.000
30.48500 327.000
30.53000 335.000
30.57500 314.000
30.62000 302.000
30.66500 327.000
30.71000 312.000
30.75500 330.000
30.80000 307.000
30.84500 315.000
30.89000 317.000
30.93500 328.000
30.98000 318.000
31.02500 338.000
31.07000 296.000
31.11500 330.000
31.16000 292.000
31.20500 297.000
31.25000 311.000
31.29500 303.000
31.34000 309.000
31.38500 319.000
31.43000 309.000
31.47500 274.000
31.52000 290.000
31.56500 304.000
31.61000 309.000
31.65500 315.000
31.70000 340.000
31.74500 341.000
31.79000 283.000
31.83500 283.000
31.88000 296.000
31.92500 285.000
31.97000 297.000
32.01500 297.000
32.06000 321.000
32.10500 320.000
32.15000 333.000
32.19500 296.000
32.24000 272.000
32.28500 278.000
32.33000 276.000
32.37500 294.000
32.42000 288.000
32.46500 282.000
32.51000 275.000
32.55500 276.000
32.60000 261.000
32.64500 291.000
32.69000 265.000
32.73500 275.000
32.78000 289.000
32.82500 267.000
32.87000 265.000
32.91500 254.000
32.96000 272.000
33.00500 260.000
33.05000 270.000
33.09500 286.000
33.14000 257.000
33.18500 269.000
33.23000 261.000
33.27500 275.000
33.32000 290.000
33.36500 265.000
33.41000 259.000
33.45500 265.000
33.50000 281.000
33.54500 270.000
33.59000 242.000
33.63500 293.000
33.68000 276.000
33.72500 257.000
33.77000 268.000
33.81500 272.000
33.86000 262.000
33.90500 269.000
33.95000 234.000
33.99500 245.000
34.04000 242.000
34.08500 231.000
34.13000 235.000
34.17500 248.000
34.22000 237.000
34.26500 240.000
34.31000 239.000
34.35500 267.000
34.40000 235.000
34.44500 234.000
34.49000 220.000
34.53500 251.000
34.58000 235.000
34.62500 248.000
34.67000 238.000
34.71500 253.000
34.76000 239.000
34.80500 216.000
34.85000 229.000
34.89500 224.000
34.94000 216.000
34.98500 239.000
35.03000 229.000
35.07500 238.000
35.12000 229.000
35.16500 227.000
35.21000 236.000
35.25500 249.000
35.30000 236.000
35.34500 218.000
35.39000 233.000
35.43500 267.000
35.48000 242.000
35.52500 234.000
35.57000 227.000
35.61500 239.000
35.66000 242.000
35.70500 217.000
35.75000 214.000
35.79500 219.000
35.84000 232.000
35.88500 216.000
35.93000 221.000
35.97500 242.000
36.02000 231.000
36.06500 226.000
36.11000 194.000
36.15500 207.000
36.20000 224.000
36.24500 221.000
36.29000 220.000
36.33500 196.000
36.38000 211.000
36.42500 218.000
36.47000 217.000
36.51500 207.000
36.56000 212.000
36.60500 209.000
36.65000 204.000
36.69500 208.000
36.74000 208.000
36.78500 226.000
36.83000 221.000
36.87500 213.000
36.92000 197.000
36.96500 216.000
37.01000 230.000
37.05500 218.000
37.10000 205.000
37.14500 194.000
37.19000 207.000
37.23500 202.000
37.28000 209.000
37.32500 209.000
37.37000 187.000
37.41500 197.000
37.46000 202.000
37.50500 184.000
37.55000 194.000
37.59500 205.000
37.64000 202.000
37.68500 182.000
37.73000 205.000
37.77500 202.000
37.82000 208.000
37.86500 184.000
37.91000 212.000
37.95500 218.000
38.00000 205.000
38.04500 221.000
38.09000 216.000
38.13500 206.000
38.18000 217.000
38.22500 214.000
38.27000 207.000
38.31500 215.000
38.36000 189.000
38.40500 208.000
38.45000 182.000
38.49500 204.000
38.54000 204.000
38.58500 195.000
38.63000 204.000
38.67500 189.000
38.72000 206.000
38.76500 199.000
38.81000 199.000
38.85500 225.000
38.90000 220.000
38.94500 210.000
38.99000 212.000
39.03500 185.000
39.08000 201.000
39.12500 171.000
39.17000 220.000
39.21500 204.000
39.26000 199.000
39.30500 219.000
39.35000 209.000
39.39500 182.000
39.44000 203.000
39.48500 204.000
39.53000 185.000
39.57500 201.000
39.62000 217.000
39.66500 202.000
39.71000 195.000
39.75500 196.000
39.80000 193.000
39.84500 205.000
39.89000 190.000
39.93500 200.000
39.98000 200.000
40.02500 189.000
40.07000 212.000
40.11500 204.000
40.16000 216.000
40.20500 197.000
40.25000 193.000
40.29500 201.000
40.34000 214.000
40.38500 198.000
40.43000 195.000
40.47500 186.000
40.52000 207.000
40.56500 198.000
40.61000 194.000
40.65500 215.000
40.70000 212.000
40.74500 199.000
40.79000 176.000
40.83500 185.000
40.88000 219.000
40.92500 205.000
40.97000 209.000
41.01500 171.000
41.06000 186.000
41.10500 187.000
41.15000 187.000
41.19500 188.000
41.24000 191.000
41.28500 190.000
41.33000 196.000
41.37500 193.000
41.42000 189.000
41.46500 195.000
41.51000 204.000
41.55500 168.000
41.60000 190.000
41.64500 201.000
41.69000 193.000
41.73500 199.000
41.78000 211.000
41.82500 202.000
41.87000 187.000
41.91500 203.000
41.96000 213.000
42.00500 186.000
42.05000 179.000
42.09500 214.000
42.14000 186.000
42.18500 189.000
42.23000 203.000
42.27500 180.000
42.32000 185.000
42.36500 174.000
42.41000 188.000
42.45500 206.000
42.50000 192.000
42.54500 203.000
42.59000 213.000
42.63500 180.000
42.68000 192.000
42.72500 208.000
42.77000 208.000
42.81500 172.000
42.86000 185.000
42.90500 199.000
42.95000 192.000
42.99500 180.000
43.04000 192.000
43.08500 168.000
43.13000 185.000
43.17500 191.000
43.22000 184.000
43.26500 202.000
43.31000 185.000
43.35500 199.000
43.40000 185.000
43.44500 190.000
43.49000 186.000
43.53500 200.000
43.58000 165.000
43.62500 208.000
43.67000 201.000
43.71500 182.000
43.76000 188.000
43.80500 183.000
43.85000 195.000
43.89500 171.000
43.94000 189.000
43.98500 195.000
44.03000 201.000
44.07500 190.000
44.12000 176.000
44.16500 188.000
44.21000 190.000
44.25500 191.000
44.30000 179.000
44.34500 172.000
44.39000 187.000
44.43500 183.000
44.48000 189.000
44.52500 200.000
44.57000 171.000
44.61500 182.000
44.66000 193.000
44.70500 183.000
44.75000 181.000
44.79500 177.000
44.84000 177.000
44.88500 181.000
44.93000 184.000
44.97500 183.000
45.02000 195.000
45.06500 173.000
45.11000 170.000
45.15500 169.000
45.20000 189.000
45.24500 176.000
45.29000 161.000
45.33500 158.000
45.38000 179.000
45.42500 184.000
45.47000 159.000
45.51500 180.000
45.56000 174.000
45.60500 177.000
45.65000 179.000
45.69500 200.000
45.74000 168.000
45.78500 190.000
45.83000 176.000
45.87500 170.000
45.92000 168.000
45.96500 168.000
46.01000 199.000
46.05500 173.000
46.10000 180.000
46.14500 173.000
46.19000 187.000
46.23500 169.000
46.28000 163.000
46.32500 176.000
46.37000 173.000
46.41500 182.000
46.46000 149.000
46.50500 184.000
46.55000 168.000
46.59500 164.000
46.64000 172.000
46.68500 169.000
46.73000 176.000
46.77500 166.000
46.82000 163.000
46.86500 196.000
46.91000 175.000
46.95500 177.000
47.00000 176.000
47.04500 179.000
47.09000 179.000
47.13500 166.000
47.18000 157.000
47.22500 172.000
47.27000 167.000
47.31500 144.000
47.36000 180.000
47.40500 164.000
47.45000 185.000
47.49500 161.000
47.54000 140.000
47.58500 165.000
47.63000 174.000
47.67500 152.000
47.72000 156.000
47.76500 146.000
47.81000 158.000
47.85500 157.000
47.90000 164.000
47.94500 143.000
47.99000 165.000
48.03500 154.000
48.08000 159.000
48.12500 151.000
48.17000 155.000
48.21500 150.000
48.26000 133.000
48.30500 150.000
48.35000 159.000
48.39500 145.000
48.44000 141.000
48.48500 154.000
48.53000 135.000
48.57500 165.000
48.62000 142.000
48.66500 154.000
48.71000 156.000
48.75500 148.000
48.80000 183.000
48.84500 176.000
48.89000 165.000
48.93500 159.000
48.98000 130.000
49.02500 144.000
49.07000 148.000
49.11500 150.000
49.16000 160.000
49.20500 161.000
49.25000 152.000
49.29500 146.000
49.34000 149.000
49.38500 146.000
49.43000 147.000
49.47500 147.000
49.52000 152.000
49.56500 151.000
49.61000 123.000
49.65500 151.000
49.70000 130.000
49.74500 136.000
49.79000 162.000
49.83500 146.000
49.88000 156.000
49.92500 145.000
49.97000 154.000
50.01500 140.000
50.06000 143.000
50.10500 141.000
50.15000 146.000
50.19500 148.000
50.24000 149.000
50.28500 150.000
50.33000 135.000
50.37500 134.000
50.42000 153.000
50.46500 128.000
50.51000 135.000
50.55500 130.000
50.60000 156.000
50.64500 138.000
50.69000 141.000
50.73500 142.000
50.78000 128.000
50.82500 157.000
50.87000 155.000
50.91500 125.000
50.96000 155.000
51.00500 131.000
51.05000 136.000
51.09500 134.000
51.14000 133.000
51.18500 144.000
51.23000 123.000
51.27500 152.000
51.32000 129.000
51.36500 133.000
51.41000 153.000
51.45500 138.000
51.50000 163.000
51.54500 138.000
51.59000 151.000
51.63500 133.000
51.68000 142.000
51.72500 128.000
51.77000 147.000
51.81500 136.000
51.86000 140.000
51.90500 147.000
51.95000 154.000
51.99500 130.000
52.04000 141.000
52.08500 136.000
52.13000 145.000
52.17500 128.000
52.22000 144.000
52.26500 144.000
52.31000 120.000
52.35500 123.000
52.40000 130.000
52.44500 140.000
52.49000 134.000
52.53500 134.000
52.58000 128.000
52.62500 127.000
52.67000 130.000
52.71500 133.000
52.76000 136.000
52.80500 156.000
52.85000 144.000
52.89500 124.000
52.94000 131.000
52.98500 120.000
53.03000 124.000
53.07500 127.000
53.12000 124.000
53.16500 130.000
53.21000 133.000
53.25500 135.000
53.30000 131.000
53.34500 138.000
53.39000 114.000
53.43500 151.000
53.48000 140.000
53.52500 142.000
53.57000 141.000
53.61500 133.000
53.66000 148.000
53.70500 120.000
53.75000 121.000
53.79500 118.000
53.84000 141.000
53.88500 138.000
53.93000 140.000
53.97500 134.000
54.02000 140.000
54.06500 143.000
54.11000 133.000
54.15500 128.000
54.20000 144.000
54.24500 133.000
54.29000 134.000
54.33500 117.000
54.38000 128.000
54.42500 120.000
54.47000 133.000
54.51500 128.000
54.56000 133.000
54.60500 120.000
54.65000 124.000
54.69500 125.000
54.74000 123.000
54.78500 123.000
54.83000 120.000
54.87500 123.000
54.92000 117.000
54.96500 116.000
55.01000 125.000
55.05500 134.000
55.10000 133.000
55.14500 135.000
55.19000 131.000
55.23500 131.000
55.28000 114.000
55.32500 129.000
55.37000 132.000
55.41500 131.000
55.46000 129.000
55.50500 120.000
55.55000 123.000
55.59500 115.000
55.64000 104.000
55.68500 118.000
55.73000 131.000
55.77500 123.000
55.82000 133.000
55.86500 99.000
55.91000 124.000
55.95500 120.000
56.00000 125.000
56.04500 124.000
56.09000 128.000
56.13500 135.000
56.18000 130.000
56.22500 136.000
56.27000 120.000
56.31500 140.000
56.36000 108.000
56.40500 131.000
56.45000 141.000
56.49500 133.000
56.54000 125.000
56.58500 119.000
56.63000 134.000
56.67500 107.000
56.72000 124.000
56.76500 126.000
56.81000 116.000
56.85500 119.000
56.90000 138.000
56.94500 121.000
56.99000 124.000
57.03500 118.000
57.08000 126.000
57.12500 132.000
57.17000 130.000
57.21500 121.000
57.26000 106.000
57.30500 133.000
57.35000 110.000
57.39500 131.000
57.44000 114.000
57.48500 117.000
57.53000 127.000
57.57500 135.000
57.62000 117.000
57.66500 117.000
57.71000 108.000
57.75500 107.000
57.80000 128.000
57.84500 126.000
57.89000 116.000
57.93500 101.000
57.98000 130.000
58.02500 126.000
58.07000 130.000
58.11500 123.000
58.16000 120.000
58.20500 133.000
58.25000 103.000
58.29500 120.000
58.34000 106.000
58.38500 101.000
58.43000 118.000
58.47500 120.000
58.52000 111.000
58.56500 121.000
58.61000 100.000
58.65500 116.000
58.70000 103.000
58.74500 135.000
58.79000 117.000
58.83500 113.000
58.88000 117.000
58.92500 117.000
58.97000 111.000
59.01500 117.000
59.06000 118.000
59.10500 122.000
59.15000 106.000
59.19500 99.000
59.24000 117.000
59.28500 107.000
59.33000 106.000
59.37500 117.000
59.42000 110.000
59.46500 102.000
59.51000 118.000
59.55500 117.000
59.60000 115.000
59.64500 125.000
59.69000 122.000
59.73500 116.000
59.78000 116.000
59.82500 110.000
59.87000 108.000
59.91500 125.000
59.96000 126.000
60.00500 122.000
60.05000 103.000
60.09500 113.000
60.14000 122.000
60.18500 104.000
60.23000 113.000
60.27500 123.000
60.32000 96.000
60.36500 101.000
60.41000 114.000
60.45500 121.000
60.50000 103.000
60.54500 111.000
60.59000 105.000
60.63500 116.000
60.68000 106.000
60.72500 130.000
60.77000 114.000
60.81500 114.000
60.86000 92.000
60.90500 120.000
60.95000 106.000
60.99500 105.000
61.04000 112.000
61.08500 112.000
61.13000 112.000
61.17500 113.000
61.22000 99.000
61.26500 96.000
61.31000 98.000
61.35500 116.000
61.40000 117.000
61.44500 103.000
61.49000 114.000
61.53500 106.000
61.58000 109.000
61.62500 115.000
61.67000 114.000
61.71500 104.000
61.76000 107.000
61.80500 101.000
61.85000 99.000
61.89500 114.000
61.94000 126.000
61.98500 117.000