File: ISoD/xrd_data/HSC093.xy
2.00000 4.000
2.04500 3.000
2.09000 2.000
2.13500 3.000
2.18000 5.000
2.22500 6.000
2.27000 5.000
2.31500 4.000
2.36000 1.000
2.40500 4.000
2.45000 6.000
2.49500 6.000
2.54000 5.000
2.58500 3.000
2.63000 4.000
2.67500 5.000
2.72000 7.000
2.76500 6.000
2.81000 2.000
2.85500 10.000
2.90000 10.000
2.94500 49.000
2.99000 413.000
3.03500 1279.000
3.08000 1966.000
3.12500 2064.000
3.17000 2008.000
3.21500 2054.000
3.26000 1943.000
3.30500 1995.000
3.35000 1956.000
3.39500 1900.000
3.44000 1944.000
3.48500 1856.000
3.53000 1873.000
3.57500 1819.000
3.62000 1777.000
3.66500 1774.000
3.71000 1783.000
3.75500 1729.000
3.80000 1685.000
3.84500 1670.000
3.89000 1633.000
3.93500 1606.000
3.98000 1635.000
4.02500 1607.000
4.07000 1613.000
4.11500 1522.000
4.16000 1495.000
4.20500 1446.000
4.25000 1421.000
4.29500 1536.000
4.34000 1446.000
4.38500 1459.000
4.43000 1449.000
4.47500 1510.000
4.52000 1400.000
4.56500 1447.000
4.61000 1340.000
4.65500 1362.000
4.70000 1364.000
4.74500 1312.000
4.79000 1297.000
4.83500 1259.000
4.88000 1270.000
4.92500 1242.000
4.97000 1246.000
5.01500 1271.000
5.06000 1221.000
5.10500 1258.000
5.15000 1217.000
5.19500 1239.000
5.24000 1254.000
5.28500 1203.000
5.33000 1160.000
5.37500 1181.000
5.42000 1174.000
5.46500 1133.000
5.51000 1139.000
5.55500 1111.000
5.60000 1086.000
5.64500 1108.000
5.69000 1104.000
5.73500 1092.000
5.78000 1136.000
5.82500 1157.000
5.87000 1069.000
5.91500 1060.000
5.96000 1035.000
6.00500 1033.000
6.05000 1046.000
6.09500 1067.000
6.14000 1042.000
6.18500 1033.000
6.23000 1035.000
6.27500 1015.000
6.32000 1051.000
6.36500 994.000
6.41000 999.000
6.45500 983.000
6.50000 976.000
6.54500 959.000
6.59000 956.000
6.63500 952.000
6.68000 1014.000
6.72500 991.000
6.77000 962.000
6.81500 946.000
6.86000 905.000
6.90500 900.000
6.95000 907.000
6.99500 963.000
7.04000 921.000
7.08500 923.000
7.13000 898.000
7.17500 923.000
7.22000 918.000
7.26500 857.000
7.31000 843.000
7.35500 916.000
7.40000 908.000
7.44500 890.000
7.49000 903.000
7.53500 898.000
7.58000 877.000
7.62500 879.000
7.67000 895.000
7.71500 873.000
7.76000 840.000
7.80500 872.000
7.85000 835.000
7.89500 852.000
7.94000 882.000
7.98500 834.000
8.03000 830.000
8.07500 824.000
8.12000 861.000
8.16500 844.000
8.21000 810.000
8.25500 841.000
8.30000 845.000
8.34500 796.000
8.39000 831.000
8.43500 814.000
8.48000 801.000
8.52500 829.000
8.57000 871.000
8.61500 834.000
8.66000 784.000
8.70500 759.000
8.75000 815.000
8.79500 778.000
8.84000 769.000
8.88500 864.000
8.93000 821.000
8.97500 867.000
9.02000 776.000
9.06500 768.000
9.11000 788.000
9.15500 841.000
9.20000 738.000
9.24500 803.000
9.29000 750.000
9.33500 766.000
9.38000 790.000
9.42500 787.000
9.47000 754.000
9.51500 770.000
9.56000 791.000
9.60500 778.000
9.65000 820.000
9.69500 800.000
9.74000 790.000
9.78500 742.000
9.83000 757.000
9.87500 730.000
9.92000 775.000
9.96500 737.000
10.01000 773.000
10.05500 778.000
10.10000 757.000
10.14500 722.000
10.19000 743.000
10.23500 720.000
10.28000 777.000
10.32500 767.000
10.37000 747.000
10.41500 760.000
10.46000 737.000
10.50500 745.000
10.55000 724.000
10.59500 763.000
10.64000 722.000
10.68500 746.000
10.73000 762.000
10.77500 729.000
10.82000 738.000
10.86500 710.000
10.91000 711.000
10.95500 772.000
11.00000 746.000
11.04500 767.000
11.09000 726.000
11.13500 701.000
11.18000 684.000
11.22500 749.000
11.27000 732.000
11.31500 735.000
11.36000 747.000
11.40500 722.000
11.45000 736.000
11.49500 777.000
11.54000 758.000
11.58500 736.000
11.63000 745.000
11.67500 710.000
11.72000 711.000
11.76500 721.000
11.81000 692.000
11.85500 765.000
11.90000 737.000
11.94500 747.000
11.99000 736.000
12.03500 728.000
12.08000 750.000
12.12500 728.000
12.17000 695.000
12.21500 745.000
12.26000 727.000
12.30500 734.000
12.35000 745.000
12.39500 789.000
12.44000 757.000
12.48500 731.000
12.53000 700.000
12.57500 727.000
12.62000 694.000
12.66500 762.000
12.71000 747.000
12.75500 724.000
12.80000 714.000
12.84500 738.000
12.89000 755.000
12.93500 758.000
12.98000 769.000
13.02500 746.000
13.07000 747.000
13.11500 778.000
13.16000 717.000
13.20500 740.000
13.25000 742.000
13.29500 688.000
13.34000 749.000
13.38500 725.000
13.43000 782.000
13.47500 718.000
13.52000 734.000
13.56500 735.000
13.61000 781.000
13.65500 799.000
13.70000 764.000
13.74500 755.000
13.79000 754.000
13.83500 772.000
13.88000 749.000
13.92500 763.000
13.97000 751.000
14.01500 704.000
14.06000 746.000
14.10500 780.000
14.15000 807.000
14.19500 766.000
14.24000 750.000
14.28500 800.000
14.33000 777.000
14.37500 703.000
14.42000 771.000
14.46500 783.000
14.51000 788.000
14.55500 765.000
14.60000 753.000
14.64500 817.000
14.69000 770.000
14.73500 840.000
14.78000 755.000
14.82500 790.000
14.87000 763.000
14.91500 803.000
14.96000 828.000
15.00500 793.000
15.05000 821.000
15.09500 828.000
15.14000 838.000
15.18500 769.000
15.23000 828.000
15.27500 747.000
15.32000 778.000
15.36500 729.000
15.41000 780.000
15.45500 777.000
15.50000 813.000
15.54500 804.000
15.59000 844.000
15.63500 795.000
15.68000 797.000
15.72500 821.000
15.77000 815.000
15.81500 818.000
15.86000 833.000
15.90500 841.000
15.95000 807.000
15.99500 861.000
16.04000 811.000
16.08500 811.000
16.13000 819.000
16.17500 909.000
16.22000 838.000
16.26500 810.000
16.31000 834.000
16.35500 863.000
16.40000 892.000
16.44500 807.000
16.49000 836.000
16.53500 822.000
16.58000 819.000
16.62500 819.000
16.67000 865.000
16.71500 830.000
16.76000 855.000
16.80500 877.000
16.85000 835.000
16.89500 871.000
16.94000 854.000
16.98500 894.000
17.03000 874.000
17.07500 821.000
17.12000 856.000
17.16500 910.000
17.21000 853.000
17.25500 902.000
17.30000 869.000
17.34500 876.000
17.39000 852.000
17.43500 843.000
17.48000 856.000
17.52500 888.000
17.57000 889.000
17.61500 846.000
17.66000 930.000
17.70500 841.000
17.75000 927.000
17.79500 891.000
17.84000 926.000
17.88500 901.000
17.93000 883.000
17.97500 891.000
18.02000 888.000
18.06500 846.000
18.11000 955.000
18.15500 933.000
18.20000 944.000
18.24500 903.000
18.29000 869.000
18.33500 884.000
18.38000 891.000
18.42500 939.000
18.47000 940.000
18.51500 901.000
18.56000 950.000
18.60500 914.000
18.65000 907.000
18.69500 926.000
18.74000 961.000
18.78500 947.000
18.83000 899.000
18.87500 918.000
18.92000 936.000
18.96500 916.000
19.01000 930.000
19.05500 949.000
19.10000 936.000
19.14500 965.000
19.19000 944.000
19.23500 950.000
19.28000 922.000
19.32500 961.000
19.37000 953.000
19.41500 940.000
19.46000 972.000
19.50500 922.000
19.55000 961.000
19.59500 942.000
19.64000 941.000
19.68500 947.000
19.73000 951.000
19.77500 929.000
19.82000 923.000
19.86500 925.000
19.91000 947.000
19.95500 928.000
20.00000 929.000
20.04500 998.000
20.09000 931.000
20.13500 971.000
20.18000 933.000
20.22500 931.000
20.27000 950.000
20.31500 956.000
20.36000 978.000
20.40500 968.000
20.45000 996.000
20.49500 989.000
20.54000 959.000
20.58500 954.000
20.63000 971.000
20.67500 973.000
20.72000 959.000
20.76500 957.000
20.81000 998.000
20.85500 1000.000
20.90000 981.000
20.94500 971.000
20.99000 952.000
21.03500 930.000
21.08000 969.000
21.12500 959.000
21.17000 1001.000
21.21500 993.000
21.26000 1024.000
21.30500 965.000
21.35000 996.000
21.39500 1008.000
21.44000 942.000
21.48500 997.000
21.53000 967.000
21.57500 954.000
21.62000 953.000
21.66500 970.000
21.71000 979.000
21.75500 1012.000
21.80000 976.000
21.84500 988.000
21.89000 936.000
21.93500 1001.000
21.98000 972.000
22.02500 1033.000
22.07000 961.000
22.11500 961.000
22.16000 987.000
22.20500 1008.000
22.25000 980.000
22.29500 976.000
22.34000 1004.000
22.38500 981.000
22.43000 959.000
22.47500 1034.000
22.52000 980.000
22.56500 988.000
22.61000 980.000
22.65500 957.000
22.70000 989.000
22.74500 1000.000
22.79000 965.000
22.83500 1020.000
22.88000 955.000
22.92500 981.000
22.97000 971.000
23.01500 1036.000
23.06000 997.000
23.10500 982.000
23.15000 972.000
23.19500 985.000
23.24000 988.000
23.28500 981.000
23.33000 970.000
23.37500 976.000
23.42000 962.000
23.46500 957.000
23.51000 999.000
23.55500 954.000
23.60000 959.000
23.64500 932.000
23.69000 940.000
23.73500 1015.000
23.78000 987.000
23.82500 959.000
23.87000 1006.000
23.91500 945.000
23.96000 955.000
24.00500 955.000
24.05000 973.000
24.09500 958.000
24.14000 939.000
24.18500 951.000
24.23000 960.000
24.27500 999.000
24.32000 941.000
24.36500 935.000
24.41000 939.000
24.45500 991.000
24.50000 953.000
24.54500 970.000
24.59000 956.000
24.63500 968.000
24.68000 964.000
24.72500 962.000
24.77000 926.000
24.81500 937.000
24.86000 924.000
24.90500 939.000
24.95000 900.000
24.99500 962.000
25.04000 885.000
25.08500 953.000
25.13000 894.000
25.17500 934.000
25.22000 924.000
25.26500 871.000
25.31000 901.000
25.35500 912.000
25.40000 877.000
25.44500 917.000
25.49000 892.000
25.53500 886.000
25.58000 863.000
25.62500 868.000
25.67000 883.000
25.71500 836.000
25.76000 831.000
25.80500 892.000
25.85000 841.000
25.89500 875.000
25.94000 810.000
25.98500 873.000
26.03000 834.000
26.07500 847.000
26.12000 845.000
26.16500 818.000
26.21000 856.000
26.25500 844.000
26.30000 838.000
26.34500 845.000
26.39000 852.000
26.43500 836.000
26.48000 825.000
26.52500 872.000
26.57000 862.000
26.61500 815.000
26.66000 804.000
26.70500 820.000
26.75000 849.000
26.79500 800.000
26.84000 765.000
26.88500 786.000
26.93000 786.000
26.97500 799.000
27.02000 767.000
27.06500 773.000
27.11000 775.000
27.15500 783.000
27.20000 796.000
27.24500 751.000
27.29000 769.000
27.33500 767.000
27.38000 722.000
27.42500 743.000
27.47000 747.000
27.51500 777.000
27.56000 742.000
27.60500 753.000
27.65000 760.000
27.69500 721.000
27.74000 719.000
27.78500 756.000
27.83000 707.000
27.87500 710.000
27.92000 720.000
27.96500 713.000
28.01000 744.000
28.05500 744.000
28.10000 689.000
28.14500 713.000
28.19000 690.000
28.23500 700.000
28.28000 721.000
28.32500 685.000
28.37000 694.000
28.41500 707.000
28.46000 704.000
28.50500 672.000
28.55000 698.000
28.59500 631.000
28.64000 653.000
28.68500 684.000
28.73000 618.000
28.77500 675.000
28.82000 682.000
28.86500 685.000
28.91000 632.000
28.95500 638.000
29.00000 674.000
29.04500 652.000
29.09000 690.000
29.13500 687.000
29.18000 645.000
29.22500 626.000
29.27000 665.000
29.31500 654.000
29.36000 602.000
29.40500 639.000
29.45000 597.000
29.49500 633.000
29.54000 608.000
29.58500 680.000
29.63000 598.000
29.67500 626.000
29.72000 638.000
29.76500 573.000
29.81000 638.000
29.85500 607.000
29.90000 657.000
29.94500 605.000
29.99000 611.000
30.03500 646.000
30.08000 583.000
30.12500 588.000
30.17000 605.000
30.21500 578.000
30.26000 598.000
30.30500 555.000
30.35000 576.000
30.39500 588.000
30.44000 604.000
30.48500 559.000
30.53000 566.000
30.57500 583.000
30.62000 586.000
30.66500 576.000
30.71000 586.000
30.75500 600.000
30.80000 565.000
30.84500 577.000
30.89000 596.000
30.93500 559.000
30.98000 561.000
31.02500 608.000
31.07000 582.000
31.11500 565.000
31.16000 564.000
31.20500 558.000
31.25000 523.000
31.29500 534.000
31.34000 500.000
31.38500 564.000
31.43000 526.000
31.47500 499.000
31.52000 517.000
31.56500 546.000
31.61000 519.000
31.65500 527.000
31.70000 523.000
31.74500 524.000
31.79000 530.000
31.83500 535.000
31.88000 512.000
31.92500 483.000
31.97000 518.000
32.01500 477.000
32.06000 532.000
32.10500 485.000
32.15000 490.000
32.19500 499.000
32.24000 484.000
32.28500 500.000
32.33000 485.000
32.37500 508.000
32.42000 520.000
32.46500 502.000
32.51000 510.000
32.55500 508.000
32.60000 482.000
32.64500 486.000
32.69000 467.000
32.73500 461.000
32.78000 461.000
32.82500 492.000
32.87000 456.000
32.91500 511.000
32.96000 479.000
33.00500 438.000
33.05000 458.000
33.09500 443.000
33.14000 469.000
33.18500 458.000
33.23000 483.000
33.27500 431.000
33.32000 428.000
33.36500 445.000
33.41000 439.000
33.45500 454.000
33.50000 450.000
33.54500 425.000
33.59000 452.000
33.63500 478.000
33.68000 446.000
33.72500 429.000
33.77000 450.000
33.81500 482.000
33.86000 437.000
33.90500 427.000
33.95000 432.000
33.99500 458.000
34.04000 482.000
34.08500 448.000
34.13000 421.000
34.17500 394.000
34.22000 436.000
34.26500 445.000
34.31000 416.000
34.35500 414.000
34.40000 388.000
34.44500 420.000
34.49000 373.000
34.53500 409.000
34.58000 391.000
34.62500 386.000
34.67000 418.000
34.71500 414.000
34.76000 386.000
34.80500 408.000
34.85000 408.000
34.89500 416.000
34.94000 405.000
34.98500 387.000
35.03000 410.000
35.07500 404.000
35.12000 442.000
35.16500 412.000
35.21000 390.000
35.25500 372.000
35.30000 421.000
35.34500 390.000
35.39000 426.000
35.43500 403.000
35.48000 380.000
35.52500 367.000
35.57000 412.000
35.61500 371.000
35.66000 388.000
35.70500 380.000
35.75000 383.000
35.79500 394.000
35.84000 375.000
35.88500 388.000
35.93000 355.000
35.97500 364.000
36.02000 371.000
36.06500 356.000
36.11000 384.000
36.15500 380.000
36.20000 390.000
36.24500 344.000
36.29000 377.000
36.33500 358.000
36.38000 361.000
36.42500 345.000
36.47000 372.000
36.51500 373.000
36.56000 371.000
36.60500 366.000
36.65000 357.000
36.69500 372.000
36.74000 352.000
36.78500 379.000
36.83000 360.000
36.87500 352.000
36.92000 344.000
36.96500 340.000
37.01000 356.000
37.05500 377.000
37.10000 363.000
37.14500 365.000
37.19000 309.000
37.23500 352.000
37.28000 329.000
37.32500 397.000
37.37000 364.000
37.41500 349.000
37.46000 369.000
37.50500 334.000
37.55000 344.000
37.59500 329.000
37.64000 373.000
37.68500 345.000
37.73000 332.000
37.77500 343.000
37.82000 380.000
37.86500 336.000
37.91000 341.000
37.95500 320.000
38.00000 371.000
38.04500 293.000
38.09000 349.000
38.13500 341.000
38.18000 352.000
38.22500 345.000
38.27000 324.000
38.31500 338.000
38.36000 354.000
38.40500 356.000
38.45000 345.000
38.49500 330.000
38.54000 356.000
38.58500 327.000
38.63000 324.000
38.67500 346.000
38.72000 306.000
38.76500 359.000
38.81000 332.000
38.85500 328.000
38.90000 346.000
38.94500 349.000
38.99000 316.000
39.03500 355.000
39.08000 316.000
39.12500 332.000
39.17000 334.000
39.21500 334.000
39.26000 338.000
39.30500 310.000
39.35000 342.000
39.39500 342.000
39.44000 340.000
39.48500 346.000
39.53000 324.000
39.57500 343.000
39.62000 345.000
39.66500 337.000
39.71000 362.000
39.75500 335.000
39.80000 328.000
39.84500 345.000
39.89000 358.000
39.93500 355.000
39.98000 327.000
40.02500 311.000
40.07000 353.000
40.11500 332.000
40.16000 309.000
40.20500 322.000
40.25000 357.000
40.29500 320.000
40.34000 347.000
40.38500 332.000
40.43000 349.000
40.47500 312.000
40.52000 331.000
40.56500 329.000
40.61000 331.000
40.65500 352.000
40.70000 349.000
40.74500 329.000
40.79000 318.000
40.83500 336.000
40.88000 313.000
40.92500 322.000
40.97000 315.000
41.01500 328.000
41.06000 345.000
41.10500 355.000
41.15000 314.000
41.19500 347.000
41.24000 342.000
41.28500 319.000
41.33000 327.000
41.37500 324.000
41.42000 348.000
41.46500 340.000
41.51000 366.000
41.55500 320.000
41.60000 326.000
41.64500 334.000
41.69000 330.000
41.73500 330.000
41.78000 346.000
41.82500 376.000
41.87000 336.000
41.91500 319.000
41.96000 336.000
42.00500 335.000
42.05000 346.000
42.09500 319.000
42.14000 342.000
42.18500 341.000
42.23000 332.000
42.27500 366.000
42.32000 346.000
42.36500 329.000
42.41000 320.000
42.45500 302.000
42.50000 323.000
42.54500 339.000
42.59000 342.000
42.63500 330.000
42.68000 355.000
42.72500 335.000
42.77000 313.000
42.81500 315.000
42.86000 347.000
42.90500 357.000
42.95000 316.000
42.99500 321.000
43.04000 347.000
43.08500 331.000
43.13000 346.000
43.17500 312.000
43.22000 336.000
43.26500 323.000
43.31000 322.000
43.35500 337.000
43.40000 352.000
43.44500 334.000
43.49000 344.000
43.53500 328.000
43.58000 337.000
43.62500 312.000
43.67000 325.000
43.71500 327.000
43.76000 319.000
43.80500 319.000
43.85000 336.000
43.89500 292.000
43.94000 324.000
43.98500 341.000
44.03000 335.000
44.07500 337.000
44.12000 339.000
44.16500 321.000
44.21000 322.000
44.25500 307.000
44.30000 334.000
44.34500 352.000
44.39000 337.000
44.43500 321.000
44.48000 328.000
44.52500 323.000
44.57000 332.000
44.61500 307.000
44.66000 325.000
44.70500 314.000
44.75000 364.000
44.79500 305.000
44.84000 332.000
44.88500 311.000
44.93000 304.000
44.97500 360.000
45.02000 317.000
45.06500 309.000
45.11000 340.000
45.15500 317.000
45.20000 302.000
45.24500 309.000
45.29000 306.000
45.33500 314.000
45.38000 323.000
45.42500 313.000
45.47000 325.000
45.51500 350.000
45.56000 317.000
45.60500 307.000
45.65000 328.000
45.69500 314.000
45.74000 298.000
45.78500 312.000
45.83000 297.000
45.87500 306.000
45.92000 300.000
45.96500 284.000
46.01000 310.000
46.05500 306.000
46.10000 318.000
46.14500 309.000
46.19000 316.000
46.23500 336.000
46.28000 291.000
46.32500 297.000
46.37000 303.000
46.41500 306.000
46.46000 313.000
46.50500 300.000
46.55000 307.000
46.59500 311.000
46.64000 326.000
46.68500 295.000
46.73000 312.000
46.77500 296.000
46.82000 293.000
46.86500 276.000
46.91000 282.000
46.95500 324.000
47.00000 281.000
47.04500 287.000
47.09000 282.000
47.13500 302.000
47.18000 307.000
47.22500 317.000
47.27000 276.000
47.31500 290.000
47.36000 287.000
47.40500 265.000
47.45000 287.000
47.49500 300.000
47.54000 285.000
47.58500 304.000
47.63000 295.000
47.67500 266.000
47.72000 272.000
47.76500 292.000
47.81000 290.000
47.85500 318.000
47.90000 272.000
47.94500 294.000
47.99000 319.000
48.03500 276.000
48.08000 276.000
48.12500 274.000
48.17000 299.000
48.21500 276.000
48.26000 263.000
48.30500 262.000
48.35000 268.000
48.39500 292.000
48.44000 286.000
48.48500 304.000
48.53000 297.000
48.57500 283.000
48.62000 288.000
48.66500 268.000
48.71000 285.000
48.75500 270.000
48.80000 281.000
48.84500 263.000
48.89000 266.000
48.93500 292.000
48.98000 276.000
49.02500 285.000
49.07000 299.000
49.11500 289.000
49.16000 268.000
49.20500 295.000
49.25000 263.000
49.29500 288.000
49.34000 250.000
49.38500 283.000
49.43000 283.000
49.47500 289.000
49.52000 286.000
49.56500 282.000
49.61000 260.000
49.65500 259.000
49.70000 262.000
49.74500 286.000
49.79000 277.000
49.83500 288.000
49.88000 248.000
49.92500 271.000
49.97000 263.000
50.01500 264.000
50.06000 273.000
50.10500 278.000
50.15000 265.000
50.19500 268.000
50.24000 257.000
50.28500 259.000
50.33000 251.000
50.37500 281.000
50.42000 261.000
50.46500 242.000
50.51000 254.000
50.55500 267.000
50.60000 290.000
50.64500 245.000
50.69000 255.000
50.73500 261.000
50.78000 253.000
50.82500 269.000
50.87000 267.000
50.91500 250.000
50.96000 250.000
51.00500 251.000
51.05000 261.000
51.09500 261.000
51.14000 264.000
51.18500 236.000
51.23000 266.000
51.27500 246.000
51.32000 277.000
51.36500 253.000
51.41000 265.000
51.45500 235.000
51.50000 262.000
51.54500 248.000
51.59000 268.000
51.63500 265.000
51.68000 257.000
51.72500 267.000
51.77000 254.000
51.81500 257.000
51.86000 248.000
51.90500 244.000
51.95000 243.000
51.99500 273.000
52.04000 249.000
52.08500 259.000
52.13000 243.000
52.17500 236.000
52.22000 245.000
52.26500 254.000
52.31000 229.000
52.35500 239.000
52.40000 227.000
52.44500 254.000
52.49000 253.000
52.53500 243.000
52.58000 262.000
52.62500 247.000
52.67000 242.000
52.71500 227.000
52.76000 234.000
52.80500 261.000
52.85000 244.000
52.89500 252.000
52.94000 225.000
52.98500 254.000
53.03000 262.000
53.07500 236.000
53.12000 237.000
53.16500 242.000
53.21000 270.000
53.25500 259.000
53.30000 225.000
53.34500 251.000
53.39000 257.000
53.43500 260.000
53.48000 242.000
53.52500 235.000
53.57000 228.000
53.61500 245.000
53.66000 240.000
53.70500 253.000
53.75000 226.000
53.79500 253.000
53.84000 223.000
53.88500 245.000
53.93000 252.000
53.97500 224.000
54.02000 239.000
54.06500 257.000
54.11000 238.000
54.15500 233.000
54.20000 232.000
54.24500 236.000
54.29000 222.000
54.33500 217.000
54.38000 241.000
54.42500 228.000
54.47000 221.000
54.51500 226.000
54.56000 216.000
54.60500 249.000
54.65000 251.000
54.69500 221.000
54.74000 227.000
54.78500 233.000
54.83000 226.000
54.87500 231.000
54.92000 216.000
54.96500 217.000
55.01000 219.000
55.05500 242.000
55.10000 212.000
55.14500 226.000
55.19000 223.000
55.23500 217.000
55.28000 226.000
55.32500 211.000
55.37000 219.000
55.41500 221.000
55.46000 212.000
55.50500 243.000
55.55000 247.000
55.59500 199.000
55.64000 235.000
55.68500 226.000
55.73000 225.000
55.77500 233.000
55.82000 206.000
55.86500 214.000
55.91000 193.000
55.95500 214.000
56.00000 205.000
56.04500 219.000
56.09000 216.000
56.13500 233.000
56.18000 230.000
56.22500 225.000
56.27000 206.000
56.31500 239.000
56.36000 234.000
56.40500 234.000
56.45000 219.000
56.49500 228.000
56.54000 235.000
56.58500 236.000
56.63000 234.000
56.67500 206.000
56.72000 230.000
56.76500 209.000
56.81000 219.000
56.85500 217.000
56.90000 212.000
56.94500 221.000
56.99000 216.000
57.03500 220.000
57.08000 214.000
57.12500 195.000
57.17000 217.000
57.21500 211.000
57.26000 210.000
57.30500 232.000
57.35000 227.000
57.39500 207.000
57.44000 200.000
57.48500 214.000
57.53000 232.000
57.57500 217.000
57.62000 197.000
57.66500 235.000
57.71000 210.000
57.75500 232.000
57.80000 219.000
57.84500 227.000
57.89000 201.000
57.93500 237.000
57.98000 194.000
58.02500 205.000
58.07000 192.000
58.11500 197.000
58.16000 207.000
58.20500 206.000
58.25000 235.000
58.29500 209.000
58.34000 222.000
58.38500 208.000
58.43000 210.000
58.47500 215.000
58.52000 192.000
58.56500 214.000
58.61000 205.000
58.65500 211.000
58.70000 197.000
58.74500 211.000
58.79000 206.000
58.83500 206.000
58.88000 219.000
58.92500 201.000
58.97000 196.000
59.01500 191.000
59.06000 207.000
59.10500 226.000
59.15000 209.000
59.19500 215.000
59.24000 198.000
59.28500 190.000
59.33000 221.000
59.37500 208.000
59.42000 208.000
59.46500 200.000
59.51000 203.000
59.55500 209.000
59.60000 211.000
59.64500 211.000
59.69000 206.000
59.73500 196.000
59.78000 201.000
59.82500 198.000
59.87000 212.000
59.91500 194.000
59.96000 209.000
60.00500 175.000
60.05000 209.000
60.09500 193.000
60.14000 180.000
60.18500 194.000
60.23000 212.000
60.27500 226.000
60.32000 213.000
60.36500 198.000
60.41000 188.000
60.45500 196.000
60.50000 201.000
60.54500 223.000
60.59000 194.000
60.63500 214.000
60.68000 180.000
60.72500 207.000
60.77000 197.000
60.81500 222.000
60.86000 173.000
60.90500 194.000
60.95000 212.000
60.99500 177.000
61.04000 198.000
61.08500 209.000
61.13000 181.000
61.17500 190.000
61.22000 189.000
61.26500 194.000
61.31000 203.000
61.35500 210.000
61.40000 197.000
61.44500 210.000
61.49000 211.000
61.53500 201.000
61.58000 193.000
61.62500 192.000
61.67000 213.000
61.71500 216.000
61.76000 190.000
61.80500 193.000
61.85000 194.000
61.89500 207.000
61.94000 181.000
61.98500 205.000