File: ISoD/xrd_data/HSC074.xy
2.00000 76.000
2.04500 76.000
2.09000 85.000
2.13500 78.000
2.18000 91.000
2.22500 107.000
2.27000 83.000
2.31500 72.000
2.36000 79.000
2.40500 95.000
2.45000 76.000
2.49500 97.000
2.54000 88.000
2.58500 95.000
2.63000 106.000
2.67500 70.000
2.72000 65.000
2.76500 61.000
2.81000 59.000
2.85500 62.000
2.90000 54.000
2.94500 68.000
2.99000 48.000
3.03500 44.000
3.08000 61.000
3.12500 61.000
3.17000 46.000
3.21500 46.000
3.26000 58.000
3.30500 55.000
3.35000 45.000
3.39500 47.000
3.44000 34.000
3.48500 46.000
3.53000 47.000
3.57500 45.000
3.62000 54.000
3.66500 77.000
3.71000 107.000
3.75500 176.000
3.80000 248.000
3.84500 221.000
3.89000 255.000
3.93500 256.000
3.98000 233.000
4.02500 241.000
4.07000 256.000
4.11500 240.000
4.16000 255.000
4.20500 251.000
4.25000 243.000
4.29500 248.000
4.34000 281.000
4.38500 254.000
4.43000 252.000
4.47500 275.000
4.52000 245.000
4.56500 253.000
4.61000 288.000
4.65500 269.000
4.70000 258.000
4.74500 244.000
4.79000 255.000
4.83500 246.000
4.88000 257.000
4.92500 257.000
4.97000 246.000
5.01500 275.000
5.06000 261.000
5.10500 269.000
5.15000 274.000
5.19500 265.000
5.24000 276.000
5.28500 287.000
5.33000 288.000
5.37500 271.000
5.42000 280.000
5.46500 327.000
5.51000 284.000
5.55500 287.000
5.60000 271.000
5.64500 288.000
5.69000 294.000
5.73500 303.000
5.78000 301.000
5.82500 300.000
5.87000 292.000
5.91500 309.000
5.96000 298.000
6.00500 284.000
6.05000 336.000
6.09500 311.000
6.14000 329.000
6.18500 334.000
6.23000 379.000
6.27500 364.000
6.32000 424.000
6.36500 373.000
6.41000 337.000
6.45500 344.000
6.50000 323.000
6.54500 309.000
6.59000 272.000
6.63500 314.000
6.68000 316.000
6.72500 293.000
6.77000 300.000
6.81500 298.000
6.86000 305.000
6.90500 299.000
6.95000 279.000
6.99500 328.000
7.04000 284.000
7.08500 303.000
7.13000 313.000
7.17500 315.000
7.22000 324.000
7.26500 296.000
7.31000 307.000
7.35500 313.000
7.40000 316.000
7.44500 320.000
7.49000 309.000
7.53500 318.000
7.58000 291.000
7.62500 314.000
7.67000 315.000
7.71500 324.000
7.76000 313.000
7.80500 329.000
7.85000 330.000
7.89500 288.000
7.94000 325.000
7.98500 303.000
8.03000 319.000
8.07500 318.000
8.12000 309.000
8.16500 307.000
8.21000 295.000
8.25500 304.000
8.30000 341.000
8.34500 330.000
8.39000 322.000
8.43500 313.000
8.48000 336.000
8.52500 334.000
8.57000 343.000
8.61500 294.000
8.66000 362.000
8.70500 342.000
8.75000 324.000
8.79500 334.000
8.84000 325.000
8.88500 319.000
8.93000 304.000
8.97500 294.000
9.02000 332.000
9.06500 335.000
9.11000 351.000
9.15500 330.000
9.20000 343.000
9.24500 326.000
9.29000 298.000
9.33500 321.000
9.38000 316.000
9.42500 349.000
9.47000 334.000
9.51500 321.000
9.56000 306.000
9.60500 352.000
9.65000 344.000
9.69500 347.000
9.74000 376.000
9.78500 342.000
9.83000 378.000
9.87500 379.000
9.92000 398.000
9.96500 379.000
10.01000 398.000
10.05500 392.000
10.10000 390.000
10.14500 378.000
10.19000 412.000
10.23500 396.000
10.28000 371.000
10.32500 424.000
10.37000 379.000
10.41500 371.000
10.46000 382.000
10.50500 401.000
10.55000 382.000
10.59500 409.000
10.64000 389.000
10.68500 395.000
10.73000 390.000
10.77500 358.000
10.82000 371.000
10.86500 363.000
10.91000 416.000
10.95500 415.000
11.00000 424.000
11.04500 408.000
11.09000 405.000
11.13500 388.000
11.18000 372.000
11.22500 374.000
11.27000 370.000
11.31500 338.000
11.36000 382.000
11.40500 414.000
11.45000 366.000
11.49500 402.000
11.54000 396.000
11.58500 370.000
11.63000 414.000
11.67500 402.000
11.72000 438.000
11.76500 497.000
11.81000 544.000
11.85500 600.000
11.90000 743.000
11.94500 935.000
11.99000 1144.000
12.03500 1383.000
12.08000 1507.000
12.12500 1210.000
12.17000 896.000
12.21500 711.000
12.26000 597.000
12.30500 483.000
12.35000 464.000
12.39500 398.000
12.44000 410.000
12.48500 386.000
12.53000 369.000
12.57500 357.000
12.62000 409.000
12.66500 372.000
12.71000 360.000
12.75500 369.000
12.80000 333.000
12.84500 351.000
12.89000 353.000
12.93500 343.000
12.98000 359.000
13.02500 334.000
13.07000 346.000
13.11500 369.000
13.16000 336.000
13.20500 342.000
13.25000 333.000
13.29500 318.000
13.34000 325.000
13.38500 370.000
13.43000 335.000
13.47500 336.000
13.52000 321.000
13.56500 348.000
13.61000 322.000
13.65500 346.000
13.70000 320.000
13.74500 337.000
13.79000 361.000
13.83500 340.000
13.88000 315.000
13.92500 311.000
13.97000 320.000
14.01500 338.000
14.06000 348.000
14.10500 332.000
14.15000 325.000
14.19500 329.000
14.24000 294.000
14.28500 321.000
14.33000 316.000
14.37500 333.000
14.42000 287.000
14.46500 333.000
14.51000 311.000
14.55500 343.000
14.60000 316.000
14.64500 363.000
14.69000 336.000
14.73500 325.000
14.78000 310.000
14.82500 316.000
14.87000 331.000
14.91500 313.000
14.96000 314.000
15.00500 339.000
15.05000 305.000
15.09500 328.000
15.14000 348.000
15.18500 337.000
15.23000 328.000
15.27500 316.000
15.32000 347.000
15.36500 295.000
15.41000 331.000
15.45500 336.000
15.50000 342.000
15.54500 342.000
15.59000 305.000
15.63500 343.000
15.68000 315.000
15.72500 340.000
15.77000 328.000
15.81500 351.000
15.86000 316.000
15.90500 329.000
15.95000 298.000
15.99500 340.000
16.04000 326.000
16.08500 332.000
16.13000 349.000
16.17500 358.000
16.22000 330.000
16.26500 326.000
16.31000 306.000
16.35500 331.000
16.40000 303.000
16.44500 306.000
16.49000 353.000
16.53500 334.000
16.58000 341.000
16.62500 308.000
16.67000 312.000
16.71500 351.000
16.76000 347.000
16.80500 330.000
16.85000 344.000
16.89500 346.000
16.94000 377.000
16.98500 359.000
17.03000 323.000
17.07500 339.000
17.12000 363.000
17.16500 342.000
17.21000 356.000
17.25500 330.000
17.30000 356.000
17.34500 336.000
17.39000 334.000
17.43500 342.000
17.48000 322.000
17.52500 344.000
17.57000 356.000
17.61500 367.000
17.66000 328.000
17.70500 353.000
17.75000 363.000
17.79500 344.000
17.84000 355.000
17.88500 346.000
17.93000 362.000
17.97500 365.000
18.02000 353.000
18.06500 370.000
18.11000 375.000
18.15500 388.000
18.20000 364.000
18.24500 355.000
18.29000 360.000
18.33500 363.000
18.38000 372.000
18.42500 368.000
18.47000 372.000
18.51500 353.000
18.56000 364.000
18.60500 349.000
18.65000 343.000
18.69500 344.000
18.74000 354.000
18.78500 348.000
18.83000 359.000
18.87500 369.000
18.92000 350.000
18.96500 363.000
19.01000 384.000
19.05500 366.000
19.10000 362.000
19.14500 360.000
19.19000 351.000
19.23500 370.000
19.28000 369.000
19.32500 350.000
19.37000 349.000
19.41500 370.000
19.46000 350.000
19.50500 377.000
19.55000 355.000
19.59500 360.000
19.64000 357.000
19.68500 332.000
19.73000 343.000
19.77500 348.000
19.82000 371.000
19.86500 353.000
19.91000 368.000
19.95500 338.000
20.00000 360.000
20.04500 337.000
20.09000 365.000
20.13500 365.000
20.18000 366.000
20.22500 369.000
20.27000 342.000
20.31500 399.000
20.36000 336.000
20.40500 358.000
20.45000 393.000
20.49500 367.000
20.54000 399.000
20.58500 407.000
20.63000 405.000
20.67500 434.000
20.72000 491.000
20.76500 541.000
20.81000 673.000
20.85500 835.000
20.90000 1104.000
20.94500 1458.000
20.99000 1979.000
21.03500 1874.000
21.08000 1352.000
21.12500 879.000
21.17000 693.000
21.21500 560.000
21.26000 512.000
21.30500 427.000
21.35000 421.000
21.39500 384.000
21.44000 392.000
21.48500 395.000
21.53000 405.000
21.57500 383.000
21.62000 342.000
21.66500 372.000
21.71000 364.000
21.75500 377.000
21.80000 342.000
21.84500 423.000
21.89000 394.000
21.93500 371.000
21.98000 373.000
22.02500 342.000
22.07000 385.000
22.11500 380.000
22.16000 373.000
22.20500 392.000
22.25000 397.000
22.29500 380.000
22.34000 372.000
22.38500 352.000
22.43000 365.000
22.47500 372.000
22.52000 395.000
22.56500 374.000
22.61000 349.000
22.65500 390.000
22.70000 365.000
22.74500 341.000
22.79000 378.000
22.83500 368.000
22.88000 346.000
22.92500 385.000
22.97000 359.000
23.01500 351.000
23.06000 382.000
23.10500 387.000
23.15000 393.000
23.19500 395.000
23.24000 397.000
23.28500 385.000
23.33000 389.000
23.37500 355.000
23.42000 379.000
23.46500 355.000
23.51000 370.000
23.55500 370.000
23.60000 410.000
23.64500 388.000
23.69000 387.000
23.73500 373.000
23.78000 391.000
23.82500 430.000
23.87000 391.000
23.91500 382.000
23.96000 409.000
24.00500 441.000
24.05000 457.000
24.09500 490.000
24.14000 493.000
24.18500 664.000
24.23000 842.000
24.27500 1032.000
24.32000 1142.000
24.36500 945.000
24.41000 785.000
24.45500 589.000
24.50000 548.000
24.54500 554.000
24.59000 578.000
24.63500 586.000
24.68000 686.000
24.72500 712.000
24.77000 780.000
24.81500 808.000
24.86000 793.000
24.90500 732.000
24.95000 671.000
24.99500 633.000
25.04000 579.000
25.08500 587.000
25.13000 500.000
25.17500 509.000
25.22000 483.000
25.26500 463.000
25.31000 518.000
25.35500 476.000
25.40000 468.000
25.44500 483.000
25.49000 485.000
25.53500 519.000
25.58000 492.000
25.62500 522.000
25.67000 509.000
25.71500 481.000
25.76000 484.000
25.80500 469.000
25.85000 485.000
25.89500 488.000
25.94000 515.000
25.98500 525.000
26.03000 616.000
26.07500 670.000
26.12000 810.000
26.16500 1181.000
26.21000 1751.000
26.25500 2367.000
26.30000 3159.000
26.34500 3533.000
26.39000 3345.000
26.43500 2860.000
26.48000 2100.000
26.52500 1715.000
26.57000 1390.000
26.61500 1255.000
26.66000 1068.000
26.70500 1027.000
26.75000 931.000
26.79500 913.000
26.84000 811.000
26.88500 800.000
26.93000 780.000
26.97500 712.000
27.02000 695.000
27.06500 686.000
27.11000 692.000
27.15500 675.000
27.20000 647.000
27.24500 637.000
27.29000 626.000
27.33500 632.000
27.38000 591.000
27.42500 601.000
27.47000 584.000
27.51500 592.000
27.56000 592.000
27.60500 623.000
27.65000 567.000
27.69500 621.000
27.74000 623.000
27.78500 585.000
27.83000 571.000
27.87500 558.000
27.92000 630.000
27.96500 606.000
28.01000 618.000
28.05500 600.000
28.10000 593.000
28.14500 553.000
28.19000 534.000
28.23500 551.000
28.28000 519.000
28.32500 502.000
28.37000 501.000
28.41500 526.000
28.46000 538.000
28.50500 594.000
28.55000 558.000
28.59500 546.000
28.64000 629.000
28.68500 698.000
28.73000 769.000
28.77500 861.000
28.82000 1066.000
28.86500 1337.000
28.91000 1669.000
28.95500 2076.000
29.00000 2409.000
29.04500 2722.000
29.09000 2827.000
29.13500 2698.000
29.18000 2331.000
29.22500 1830.000
29.27000 1499.000
29.31500 1221.000
29.36000 1018.000
29.40500 875.000
29.45000 768.000
29.49500 657.000
29.54000 688.000
29.58500 617.000
29.63000 564.000
29.67500 512.000
29.72000 491.000
29.76500 490.000
29.81000 436.000
29.85500 439.000
29.90000 430.000
29.94500 435.000
29.99000 407.000
30.03500 417.000
30.08000 407.000
30.12500 386.000
30.17000 386.000
30.21500 386.000
30.26000 357.000
30.30500 373.000
30.35000 358.000
30.39500 381.000
30.44000 362.000
30.48500 355.000
30.53000 388.000
30.57500 362.000
30.62000 330.000
30.66500 343.000
30.71000 345.000
30.75500 350.000
30.80000 302.000
30.84500 349.000
30.89000 352.000
30.93500 329.000
30.98000 342.000
31.02500 348.000
31.07000 323.000
31.11500 334.000
31.16000 336.000
31.20500 330.000
31.25000 312.000
31.29500 339.000
31.34000 292.000
31.38500 316.000
31.43000 316.000
31.47500 318.000
31.52000 321.000
31.56500 305.000
31.61000 325.000
31.65500 297.000
31.70000 293.000
31.74500 317.000
31.79000 342.000
31.83500 342.000
31.88000 345.000
31.92500 347.000
31.97000 352.000
32.01500 394.000
32.06000 424.000
32.10500 437.000
32.15000 538.000
32.19500 659.000
32.24000 884.000
32.28500 1184.000
32.33000 1339.000
32.37500 1325.000
32.42000 1046.000
32.46500 743.000
32.51000 579.000
32.55500 456.000
32.60000 428.000
32.64500 382.000
32.69000 371.000
32.73500 342.000
32.78000 300.000
32.82500 313.000
32.87000 291.000
32.91500 300.000
32.96000 308.000
33.00500 297.000
33.05000 300.000
33.09500 332.000
33.14000 272.000
33.18500 263.000
33.23000 290.000
33.27500 277.000
33.32000 299.000
33.36500 267.000
33.41000 286.000
33.45500 283.000
33.50000 294.000
33.54500 279.000
33.59000 293.000
33.63500 299.000
33.68000 279.000
33.72500 318.000
33.77000 322.000
33.81500 328.000
33.86000 409.000
33.90500 377.000
33.95000 380.000
33.99500 350.000
34.04000 363.000
34.08500 347.000
34.13000 307.000
34.17500 332.000
34.22000 295.000
34.26500 256.000
34.31000 265.000
34.35500 278.000
34.40000 275.000
34.44500 286.000
34.49000 261.000
34.53500 285.000
34.58000 243.000
34.62500 259.000
34.67000 257.000
34.71500 273.000
34.76000 288.000
34.80500 279.000
34.85000 294.000
34.89500 326.000
34.94000 297.000
34.98500 350.000
35.03000 363.000
35.07500 350.000
35.12000 339.000
35.16500 315.000
35.21000 318.000
35.25500 257.000
35.30000 270.000
35.34500 255.000
35.39000 265.000
35.43500 285.000
35.48000 268.000
35.52500 242.000
35.57000 263.000
35.61500 224.000
35.66000 232.000
35.70500 263.000
35.75000 266.000
35.79500 258.000
35.84000 262.000
35.88500 283.000
35.93000 310.000
35.97500 318.000
36.02000 322.000
36.06500 329.000
36.11000 353.000
36.15500 340.000
36.20000 349.000
36.24500 336.000
36.29000 294.000
36.33500 296.000
36.38000 283.000
36.42500 275.000
36.47000 267.000
36.51500 246.000
36.56000 261.000
36.60500 227.000
36.65000 254.000
36.69500 261.000
36.74000 272.000
36.78500 254.000
36.83000 259.000
36.87500 262.000
36.92000 260.000
36.96500 237.000
37.01000 226.000
37.05500 200.000
37.10000 215.000
37.14500 219.000
37.19000 228.000
37.23500 221.000
37.28000 225.000
37.32500 211.000
37.37000 208.000
37.41500 200.000
37.46000 215.000
37.50500 211.000
37.55000 189.000
37.59500 208.000
37.64000 196.000
37.68500 177.000
37.73000 186.000
37.77500 219.000
37.82000 202.000
37.86500 207.000
37.91000 218.000
37.95500 198.000
38.00000 203.000
38.04500 199.000
38.09000 207.000
38.13500 201.000
38.18000 201.000
38.22500 212.000
38.27000 197.000
38.31500 203.000
38.36000 189.000
38.40500 206.000
38.45000 230.000
38.49500 186.000
38.54000 204.000
38.58500 207.000
38.63000 200.000
38.67500 192.000
38.72000 201.000
38.76500 190.000
38.81000 182.000
38.85500 204.000
38.90000 183.000
38.94500 200.000
38.99000 177.000
39.03500 203.000
39.08000 208.000
39.12500 201.000
39.17000 199.000
39.21500 203.000
39.26000 212.000
39.30500 186.000
39.35000 222.000
39.39500 187.000
39.44000 178.000
39.48500 215.000
39.53000 196.000
39.57500 179.000
39.62000 199.000
39.66500 191.000
39.71000 221.000
39.75500 207.000
39.80000 188.000
39.84500 191.000
39.89000 194.000
39.93500 186.000
39.98000 213.000
40.02500 176.000
40.07000 214.000
40.11500 179.000
40.16000 195.000
40.20500 191.000
40.25000 201.000
40.29500 173.000
40.34000 198.000
40.38500 188.000
40.43000 174.000
40.47500 184.000
40.52000 187.000
40.56500 185.000
40.61000 202.000
40.65500 219.000
40.70000 194.000
40.74500 197.000
40.79000 173.000
40.83500 161.000
40.88000 200.000
40.92500 182.000
40.97000 166.000
41.01500 193.000
41.06000 170.000
41.10500 203.000
41.15000 182.000
41.19500 180.000
41.24000 178.000
41.28500 193.000
41.33000 182.000
41.37500 172.000
41.42000 188.000
41.46500 200.000
41.51000 205.000
41.55500 181.000
41.60000 186.000
41.64500 194.000
41.69000 196.000
41.73500 200.000
41.78000 196.000
41.82500 199.000
41.87000 207.000
41.91500 206.000
41.96000 208.000
42.00500 222.000
42.05000 230.000
42.09500 219.000
42.14000 230.000
42.18500 217.000
42.23000 218.000
42.27500 212.000
42.32000 208.000
42.36500 229.000
42.41000 200.000
42.45500 237.000
42.50000 233.000
42.54500 241.000
42.59000 257.000
42.63500 282.000
42.68000 310.000
42.72500 386.000
42.77000 380.000
42.81500 377.000
42.86000 321.000
42.90500 293.000
42.95000 242.000
42.99500 226.000
43.04000 223.000
43.08500 212.000
43.13000 197.000
43.17500 212.000
43.22000 218.000
43.26500 201.000
43.31000 202.000
43.35500 193.000
43.40000 185.000
43.44500 195.000
43.49000 187.000
43.53500 206.000
43.58000 224.000
43.62500 217.000
43.67000 217.000
43.71500 211.000
43.76000 204.000
43.80500 203.000
43.85000 222.000
43.89500 204.000
43.94000 184.000
43.98500 181.000
44.03000 214.000
44.07500 212.000
44.12000 231.000
44.16500 228.000
44.21000 246.000
44.25500 217.000
44.30000 247.000
44.34500 251.000
44.39000 263.000
44.43500 272.000
44.48000 294.000
44.52500 394.000
44.57000 424.000
44.61500 465.000
44.66000 471.000
44.70500 414.000
44.75000 387.000
44.79500 335.000
44.84000 413.000
44.88500 393.000
44.93000 394.000
44.97500 370.000
45.02000 348.000
45.06500 335.000
45.11000 306.000
45.15500 290.000
45.20000 263.000
45.24500 260.000
45.29000 269.000
45.33500 231.000
45.38000 245.000
45.42500 254.000
45.47000 246.000
45.51500 237.000
45.56000 282.000
45.60500 285.000
45.65000 279.000
45.69500 292.000
45.74000 285.000
45.78500 295.000
45.83000 286.000
45.87500 322.000
45.92000 267.000
45.96500 278.000
46.01000 267.000
46.05500 269.000
46.10000 245.000
46.14500 242.000
46.19000 238.000
46.23500 251.000
46.28000 236.000
46.32500 220.000
46.37000 231.000
46.41500 235.000
46.46000 262.000
46.50500 248.000
46.55000 275.000
46.59500 293.000
46.64000 302.000
46.68500 311.000
46.73000 303.000
46.77500 287.000
46.82000 270.000
46.86500 266.000
46.91000 251.000
46.95500 248.000
47.00000 225.000
47.04500 190.000
47.09000 221.000
47.13500 186.000
47.18000 194.000
47.22500 180.000
47.27000 210.000
47.31500 192.000
47.36000 184.000
47.40500 169.000
47.45000 182.000
47.49500 174.000
47.54000 175.000
47.58500 189.000
47.63000 183.000
47.67500 189.000
47.72000 205.000
47.76500 176.000
47.81000 165.000
47.85500 174.000
47.90000 183.000
47.94500 148.000
47.99000 151.000
48.03500 177.000
48.08000 184.000
48.12500 155.000
48.17000 155.000
48.21500 167.000
48.26000 175.000
48.30500 166.000
48.35000 153.000
48.39500 176.000
48.44000 159.000
48.48500 180.000
48.53000 160.000
48.57500 186.000
48.62000 185.000
48.66500 178.000
48.71000 175.000
48.75500 167.000
48.80000 165.000
48.84500 191.000
48.89000 153.000
48.93500 167.000
48.98000 154.000
49.02500 163.000
49.07000 170.000
49.11500 138.000
49.16000 165.000
49.20500 162.000
49.25000 179.000
49.29500 165.000
49.34000 170.000
49.38500 154.000
49.43000 172.000
49.47500 149.000
49.52000 183.000
49.56500 182.000
49.61000 172.000
49.65500 203.000
49.70000 211.000
49.74500 242.000
49.79000 212.000
49.83500 232.000
49.88000 215.000
49.92500 218.000
49.97000 199.000
50.01500 216.000
50.06000 193.000
50.10500 188.000
50.15000 181.000
50.19500 203.000
50.24000 216.000
50.28500 192.000
50.33000 206.000
50.37500 202.000
50.42000 245.000
50.46500 233.000
50.51000 255.000
50.55500 273.000
50.60000 307.000
50.64500 323.000
50.69000 328.000
50.73500 380.000
50.78000 450.000
50.82500 409.000
50.87000 449.000
50.91500 472.000
50.96000 493.000
51.00500 484.000
51.05000 433.000
51.09500 402.000
51.14000 382.000
51.18500 346.000
51.23000 340.000
51.27500 304.000
51.32000 308.000
51.36500 251.000
51.41000 237.000
51.45500 253.000
51.50000 225.000
51.54500 243.000
51.59000 214.000
51.63500 200.000
51.68000 187.000
51.72500 209.000
51.77000 179.000
51.81500 212.000
51.86000 183.000
51.90500 175.000
51.95000 177.000
51.99500 189.000
52.04000 181.000
52.08500 175.000
52.13000 180.000
52.17500 173.000
52.22000 200.000
52.26500 191.000
52.31000 197.000
52.35500 188.000
52.40000 173.000
52.44500 184.000
52.49000 196.000
52.53500 181.000
52.58000 194.000
52.62500 189.000
52.67000 187.000
52.71500 166.000
52.76000 165.000
52.80500 194.000
52.85000 170.000
52.89500 191.000
52.94000 170.000
52.98500 175.000
53.03000 144.000
53.07500 182.000
53.12000 172.000
53.16500 195.000
53.21000 167.000
53.25500 170.000
53.30000 151.000
53.34500 167.000
53.39000 171.000
53.43500 187.000
53.48000 178.000
53.52500 167.000
53.57000 161.000
53.61500 188.000
53.66000 205.000
53.70500 183.000
53.75000 173.000
53.79500 186.000
53.84000 195.000
53.88500 196.000
53.93000 204.000
53.97500 232.000
54.02000 271.000
54.06500 278.000
54.11000 301.000
54.15500 333.000
54.20000 359.000
54.24500 353.000
54.29000 343.000
54.33500 373.000
54.38000 329.000
54.42500 326.000
54.47000 337.000
54.51500 362.000
54.56000 420.000
54.60500 402.000
54.65000 428.000
54.69500 400.000
54.74000 314.000
54.78500 304.000
54.83000 251.000
54.87500 223.000
54.92000 199.000
54.96500 201.000
55.01000 195.000
55.05500 192.000
55.10000 176.000
55.14500 175.000
55.19000 184.000
55.23500 176.000
55.28000 159.000
55.32500 181.000
55.37000 174.000
55.41500 157.000
55.46000 180.000
55.50500 173.000
55.55000 161.000
55.59500 160.000
55.64000 151.000
55.68500 181.000
55.73000 168.000
55.77500 179.000
55.82000 171.000
55.86500 156.000
55.91000 174.000
55.95500 161.000
56.00000 158.000
56.04500 141.000
56.09000 149.000
56.13500 160.000
56.18000 170.000
56.22500 153.000
56.27000 165.000
56.31500 162.000
56.36000 164.000
56.40500 165.000
56.45000 174.000
56.49500 171.000
56.54000 179.000
56.58500 160.000
56.63000 163.000
56.67500 160.000
56.72000 154.000
56.76500 171.000
56.81000 156.000
56.85500 165.000
56.90000 169.000
56.94500 157.000
56.99000 168.000
57.03500 157.000
57.08000 146.000
57.12500 150.000
57.17000 160.000
57.21500 155.000
57.26000 171.000
57.30500 164.000
57.35000 159.000
57.39500 160.000
57.44000 179.000
57.48500 172.000
57.53000 153.000
57.57500 149.000
57.62000 176.000
57.66500 171.000
57.71000 177.000
57.75500 150.000
57.80000 160.000
57.84500 160.000
57.89000 144.000
57.93500 155.000
57.98000 154.000
58.02500 153.000
58.07000 161.000
58.11500 145.000
58.16000 156.000
58.20500 172.000
58.25000 155.000
58.29500 163.000
58.34000 139.000
58.38500 141.000
58.43000 163.000
58.47500 156.000
58.52000 159.000
58.56500 155.000
58.61000 170.000
58.65500 176.000
58.70000 172.000
58.74500 161.000
58.79000 179.000
58.83500 160.000
58.88000 161.000
58.92500 167.000
58.97000 156.000
59.01500 168.000
59.06000 157.000
59.10500 180.000
59.15000 161.000
59.19500 172.000
59.24000 160.000
59.28500 180.000
59.33000 178.000
59.37500 174.000
59.42000 160.000
59.46500 175.000
59.51000 155.000
59.55500 168.000
59.60000 152.000
59.64500 158.000
59.69000 158.000
59.73500 168.000
59.78000 170.000
59.82500 162.000
59.87000 149.000
59.91500 149.000
59.96000 172.000
60.00500 192.000
60.05000 166.000
60.09500 153.000
60.14000 167.000
60.18500 173.000
60.23000 176.000
60.27500 174.000
60.32000 170.000
60.36500 168.000
60.41000 152.000
60.45500 155.000
60.50000 178.000
60.54500 154.000
60.59000 153.000
60.63500 146.000
60.68000 163.000
60.72500 170.000
60.77000 145.000
60.81500 153.000
60.86000 168.000
60.90500 162.000
60.95000 130.000
60.99500 144.000
61.04000 152.000
61.08500 160.000
61.13000 136.000
61.17500 158.000
61.22000 149.000
61.26500 164.000
61.31000 154.000
61.35500 149.000
61.40000 159.000
61.44500 161.000
61.49000 154.000
61.53500 165.000
61.58000 151.000
61.62500 168.000
61.67000 154.000
61.71500 159.000
61.76000 160.000
61.80500 142.000
61.85000 143.000
61.89500 134.000
61.94000 144.000
61.98500 146.000