File: ISoD/xrd_data/HSC078.xy
2.00000 4.000
2.04500 6.000
2.09000 1.000
2.13500 4.000
2.18000 5.000
2.22500 6.000
2.27000 5.000
2.31500 4.000
2.36000 3.000
2.40500 4.000
2.45000 4.000
2.49500 2.000
2.54000 3.000
2.58500 2.000
2.63000 4.000
2.67500 2.000
2.72000 7.000
2.76500 2.000
2.81000 4.000
2.85500 4.000
2.90000 6.000
2.94500 3.000
2.99000 6.000
3.03500 13.000
3.08000 66.000
3.12500 198.000
3.17000 372.000
3.21500 425.000
3.26000 429.000
3.30500 429.000
3.35000 407.000
3.39500 398.000
3.44000 365.000
3.48500 381.000
3.53000 358.000
3.57500 364.000
3.62000 364.000
3.66500 370.000
3.71000 349.000
3.75500 350.000
3.80000 345.000
3.84500 341.000
3.89000 366.000
3.93500 360.000
3.98000 359.000
4.02500 352.000
4.07000 343.000
4.11500 339.000
4.16000 338.000
4.20500 351.000
4.25000 337.000
4.29500 335.000
4.34000 366.000
4.38500 325.000
4.43000 357.000
4.47500 318.000
4.52000 341.000
4.56500 345.000
4.61000 330.000
4.65500 341.000
4.70000 352.000
4.74500 333.000
4.79000 345.000
4.83500 339.000
4.88000 297.000
4.92500 326.000
4.97000 304.000
5.01500 292.000
5.06000 322.000
5.10500 327.000
5.15000 327.000
5.19500 305.000
5.24000 334.000
5.28500 301.000
5.33000 356.000
5.37500 330.000
5.42000 336.000
5.46500 325.000
5.51000 354.000
5.55500 349.000
5.60000 350.000
5.64500 330.000
5.69000 341.000
5.73500 338.000
5.78000 348.000
5.82500 344.000
5.87000 348.000
5.91500 350.000
5.96000 335.000
6.00500 352.000
6.05000 313.000
6.09500 342.000
6.14000 328.000
6.18500 347.000
6.23000 377.000
6.27500 345.000
6.32000 335.000
6.36500 350.000
6.41000 348.000
6.45500 336.000
6.50000 346.000
6.54500 300.000
6.59000 354.000
6.63500 346.000
6.68000 358.000
6.72500 385.000
6.77000 346.000
6.81500 358.000
6.86000 360.000
6.90500 391.000
6.95000 364.000
6.99500 374.000
7.04000 354.000
7.08500 373.000
7.13000 361.000
7.17500 357.000
7.22000 361.000
7.26500 370.000
7.31000 369.000
7.35500 364.000
7.40000 384.000
7.44500 369.000
7.49000 363.000
7.53500 349.000
7.58000 355.000
7.62500 378.000
7.67000 362.000
7.71500 362.000
7.76000 381.000
7.80500 372.000
7.85000 386.000
7.89500 355.000
7.94000 358.000
7.98500 390.000
8.03000 395.000
8.07500 350.000
8.12000 356.000
8.16500 373.000
8.21000 385.000
8.25500 373.000
8.30000 376.000
8.34500 388.000
8.39000 382.000
8.43500 354.000
8.48000 394.000
8.52500 375.000
8.57000 400.000
8.61500 352.000
8.66000 402.000
8.70500 417.000
8.75000 406.000
8.79500 394.000
8.84000 390.000
8.88500 385.000
8.93000 381.000
8.97500 368.000
9.02000 375.000
9.06500 394.000
9.11000 356.000
9.15500 391.000
9.20000 411.000
9.24500 397.000
9.29000 381.000
9.33500 405.000
9.38000 363.000
9.42500 402.000
9.47000 375.000
9.51500 371.000
9.56000 384.000
9.60500 407.000
9.65000 434.000
9.69500 381.000
9.74000 387.000
9.78500 382.000
9.83000 392.000
9.87500 408.000
9.92000 415.000
9.96500 417.000
10.01000 427.000
10.05500 412.000
10.10000 386.000
10.14500 419.000
10.19000 431.000
10.23500 401.000
10.28000 408.000
10.32500 408.000
10.37000 414.000
10.41500 407.000
10.46000 430.000
10.50500 406.000
10.55000 439.000
10.59500 426.000
10.64000 431.000
10.68500 406.000
10.73000 423.000
10.77500 439.000
10.82000 414.000
10.86500 462.000
10.91000 438.000
10.95500 436.000
11.00000 434.000
11.04500 434.000
11.09000 419.000
11.13500 439.000
11.18000 465.000
11.22500 459.000
11.27000 397.000
11.31500 467.000
11.36000 442.000
11.40500 407.000
11.45000 425.000
11.49500 451.000
11.54000 472.000
11.58500 464.000
11.63000 467.000
11.67500 468.000
11.72000 465.000
11.76500 449.000
11.81000 457.000
11.85500 489.000
11.90000 492.000
11.94500 476.000
11.99000 481.000
12.03500 507.000
12.08000 479.000
12.12500 487.000
12.17000 529.000
12.21500 537.000
12.26000 504.000
12.30500 512.000
12.35000 503.000
12.39500 548.000
12.44000 556.000
12.48500 555.000
12.53000 569.000
12.57500 604.000
12.62000 622.000
12.66500 594.000
12.71000 607.000
12.75500 674.000
12.80000 637.000
12.84500 666.000
12.89000 717.000
12.93500 628.000
12.98000 660.000
13.02500 641.000
13.07000 654.000
13.11500 654.000
13.16000 692.000
13.20500 601.000
13.25000 666.000
13.29500 628.000
13.34000 662.000
13.38500 656.000
13.43000 632.000
13.47500 659.000
13.52000 633.000
13.56500 605.000
13.61000 644.000
13.65500 647.000
13.70000 617.000
13.74500 631.000
13.79000 602.000
13.83500 618.000
13.88000 583.000
13.92500 603.000
13.97000 625.000
14.01500 624.000
14.06000 603.000
14.10500 648.000
14.15000 592.000
14.19500 590.000
14.24000 595.000
14.28500 616.000
14.33000 592.000
14.37500 610.000
14.42000 568.000
14.46500 573.000
14.51000 593.000
14.55500 586.000
14.60000 596.000
14.64500 552.000
14.69000 572.000
14.73500 547.000
14.78000 586.000
14.82500 576.000
14.87000 586.000
14.91500 592.000
14.96000 616.000
15.00500 576.000
15.05000 526.000
15.09500 563.000
15.14000 564.000
15.18500 541.000
15.23000 552.000
15.27500 558.000
15.32000 543.000
15.36500 558.000
15.41000 558.000
15.45500 541.000
15.50000 563.000
15.54500 563.000
15.59000 550.000
15.63500 517.000
15.68000 568.000
15.72500 533.000
15.77000 563.000
15.81500 557.000
15.86000 557.000
15.90500 555.000
15.95000 545.000
15.99500 553.000
16.04000 592.000
16.08500 573.000
16.13000 578.000
16.17500 559.000
16.22000 577.000
16.26500 558.000
16.31000 587.000
16.35500 549.000
16.40000 571.000
16.44500 547.000
16.49000 548.000
16.53500 537.000
16.58000 551.000
16.62500 533.000
16.67000 554.000
16.71500 528.000
16.76000 547.000
16.80500 505.000
16.85000 527.000
16.89500 544.000
16.94000 578.000
16.98500 573.000
17.03000 563.000
17.07500 589.000
17.12000 533.000
17.16500 566.000
17.21000 531.000
17.25500 547.000
17.30000 565.000
17.34500 562.000
17.39000 569.000
17.43500 595.000
17.48000 589.000
17.52500 567.000
17.57000 580.000
17.61500 603.000
17.66000 565.000
17.70500 538.000
17.75000 585.000
17.79500 558.000
17.84000 604.000
17.88500 553.000
17.93000 547.000
17.97500 598.000
18.02000 592.000
18.06500 585.000
18.11000 567.000
18.15500 589.000
18.20000 562.000
18.24500 581.000
18.29000 577.000
18.33500 588.000
18.38000 563.000
18.42500 583.000
18.47000 555.000
18.51500 590.000
18.56000 545.000
18.60500 524.000
18.65000 589.000
18.69500 584.000
18.74000 565.000
18.78500 565.000
18.83000 557.000
18.87500 577.000
18.92000 556.000
18.96500 568.000
19.01000 554.000
19.05500 597.000
19.10000 521.000
19.14500 576.000
19.19000 568.000
19.23500 594.000
19.28000 524.000
19.32500 576.000
19.37000 543.000
19.41500 527.000
19.46000 554.000
19.50500 541.000
19.55000 560.000
19.59500 564.000
19.64000 552.000
19.68500 540.000
19.73000 560.000
19.77500 556.000
19.82000 594.000
19.86500 541.000
19.91000 555.000
19.95500 557.000
20.00000 528.000
20.04500 565.000
20.09000 542.000
20.13500 547.000
20.18000 574.000
20.22500 572.000
20.27000 553.000
20.31500 593.000
20.36000 569.000
20.40500 571.000
20.45000 540.000
20.49500 552.000
20.54000 560.000
20.58500 565.000
20.63000 552.000
20.67500 579.000
20.72000 559.000
20.76500 560.000
20.81000 579.000
20.85500 560.000
20.90000 530.000
20.94500 574.000
20.99000 543.000
21.03500 571.000
21.08000 584.000
21.12500 540.000
21.17000 562.000
21.21500 607.000
21.26000 558.000
21.30500 549.000
21.35000 562.000
21.39500 579.000
21.44000 578.000
21.48500 560.000
21.53000 580.000
21.57500 548.000
21.62000 553.000
21.66500 610.000
21.71000 571.000
21.75500 584.000
21.80000 583.000
21.84500 531.000
21.89000 624.000
21.93500 588.000
21.98000 571.000
22.02500 592.000
22.07000 603.000
22.11500 599.000
22.16000 561.000
22.20500 557.000
22.25000 561.000
22.29500 587.000
22.34000 563.000
22.38500 560.000
22.43000 558.000
22.47500 573.000
22.52000 563.000
22.56500 579.000
22.61000 558.000
22.65500 577.000
22.70000 546.000
22.74500 586.000
22.79000 586.000
22.83500 535.000
22.88000 541.000
22.92500 543.000
22.97000 570.000
23.01500 550.000
23.06000 550.000
23.10500 597.000
23.15000 586.000
23.19500 579.000
23.24000 558.000
23.28500 575.000
23.33000 523.000
23.37500 572.000
23.42000 556.000
23.46500 541.000
23.51000 550.000
23.55500 548.000
23.60000 570.000
23.64500 543.000
23.69000 561.000
23.73500 584.000
23.78000 560.000
23.82500 563.000
23.87000 577.000
23.91500 546.000
23.96000 541.000
24.00500 536.000
24.05000 574.000
24.09500 561.000
24.14000 532.000
24.18500 540.000
24.23000 562.000
24.27500 537.000
24.32000 591.000
24.36500 560.000
24.41000 582.000
24.45500 625.000
24.50000 566.000
24.54500 608.000
24.59000 585.000
24.63500 546.000
24.68000 554.000
24.72500 564.000
24.77000 615.000
24.81500 591.000
24.86000 580.000
24.90500 627.000
24.95000 605.000
24.99500 606.000
25.04000 624.000
25.08500 596.000
25.13000 620.000
25.17500 613.000
25.22000 617.000
25.26500 634.000
25.31000 639.000
25.35500 645.000
25.40000 683.000
25.44500 643.000
25.49000 683.000
25.53500 719.000
25.58000 692.000
25.62500 689.000
25.67000 674.000
25.71500 722.000
25.76000 747.000
25.80500 745.000
25.85000 776.000
25.89500 759.000
25.94000 769.000
25.98500 857.000
26.03000 804.000
26.07500 826.000
26.12000 838.000
26.16500 863.000
26.21000 891.000
26.25500 903.000
26.30000 933.000
26.34500 916.000
26.39000 1022.000
26.43500 1014.000
26.48000 1041.000
26.52500 1094.000
26.57000 1104.000
26.61500 1182.000
26.66000 1195.000
26.70500 1239.000
26.75000 1288.000
26.79500 1344.000
26.84000 1444.000
26.88500 1441.000
26.93000 1517.000
26.97500 1634.000
27.02000 1666.000
27.06500 1717.000
27.11000 1821.000
27.15500 1879.000
27.20000 1907.000
27.24500 1986.000
27.29000 1989.000
27.33500 2090.000
27.38000 2113.000
27.42500 2098.000
27.47000 2109.000
27.51500 2158.000
27.56000 2173.000
27.60500 2060.000
27.65000 2111.000
27.69500 1950.000
27.74000 1933.000
27.78500 1830.000
27.83000 1731.000
27.87500 1605.000
27.92000 1526.000
27.96500 1435.000
28.01000 1339.000
28.05500 1249.000
28.10000 1233.000
28.14500 1181.000
28.19000 1052.000
28.23500 1016.000
28.28000 1000.000
28.32500 947.000
28.37000 937.000
28.41500 863.000
28.46000 859.000
28.50500 778.000
28.55000 802.000
28.59500 764.000
28.64000 709.000
28.68500 715.000
28.73000 708.000
28.77500 690.000
28.82000 671.000
28.86500 638.000
28.91000 657.000
28.95500 672.000
29.00000 625.000
29.04500 629.000
29.09000 627.000
29.13500 593.000
29.18000 614.000
29.22500 530.000
29.27000 548.000
29.31500 506.000
29.36000 553.000
29.40500 552.000
29.45000 549.000
29.49500 537.000
29.54000 529.000
29.58500 519.000
29.63000 525.000
29.67500 498.000
29.72000 473.000
29.76500 514.000
29.81000 513.000
29.85500 495.000
29.90000 480.000
29.94500 497.000
29.99000 483.000
30.03500 489.000
30.08000 478.000
30.12500 475.000
30.17000 483.000
30.21500 480.000
30.26000 497.000
30.30500 451.000
30.35000 485.000
30.39500 453.000
30.44000 451.000
30.48500 437.000
30.53000 459.000
30.57500 456.000
30.62000 447.000
30.66500 467.000
30.71000 419.000
30.75500 435.000
30.80000 438.000
30.84500 420.000
30.89000 441.000
30.93500 400.000
30.98000 450.000
31.02500 447.000
31.07000 403.000
31.11500 410.000
31.16000 407.000
31.20500 383.000
31.25000 406.000
31.29500 421.000
31.34000 394.000
31.38500 398.000
31.43000 389.000
31.47500 401.000
31.52000 419.000
31.56500 403.000
31.61000 392.000
31.65500 410.000
31.70000 431.000
31.74500 387.000
31.79000 379.000
31.83500 388.000
31.88000 393.000
31.92500 389.000
31.97000 404.000
32.01500 396.000
32.06000 355.000
32.10500 387.000
32.15000 384.000
32.19500 374.000
32.24000 390.000
32.28500 362.000
32.33000 382.000
32.37500 334.000
32.42000 366.000
32.46500 353.000
32.51000 351.000
32.55500 320.000
32.60000 368.000
32.64500 356.000
32.69000 331.000
32.73500 323.000
32.78000 338.000
32.82500 330.000
32.87000 356.000
32.91500 326.000
32.96000 325.000
33.00500 341.000
33.05000 322.000
33.09500 328.000
33.14000 336.000
33.18500 346.000
33.23000 322.000
33.27500 338.000
33.32000 340.000
33.36500 344.000
33.41000 318.000
33.45500 319.000
33.50000 317.000
33.54500 356.000
33.59000 323.000
33.63500 342.000
33.68000 319.000
33.72500 311.000
33.77000 357.000
33.81500 315.000
33.86000 316.000
33.90500 311.000
33.95000 284.000
33.99500 331.000
34.04000 317.000
34.08500 292.000
34.13000 307.000
34.17500 324.000
34.22000 330.000
34.26500 294.000
34.31000 284.000
34.35500 316.000
34.40000 322.000
34.44500 283.000
34.49000 322.000
34.53500 312.000
34.58000 286.000
34.62500 324.000
34.67000 315.000
34.71500 294.000
34.76000 306.000
34.80500 315.000
34.85000 293.000
34.89500 302.000
34.94000 337.000
34.98500 288.000
35.03000 298.000
35.07500 289.000
35.12000 289.000
35.16500 294.000
35.21000 276.000
35.25500 294.000
35.30000 299.000
35.34500 280.000
35.39000 301.000
35.43500 278.000
35.48000 282.000
35.52500 293.000
35.57000 305.000
35.61500 281.000
35.66000 299.000
35.70500 302.000
35.75000 266.000
35.79500 276.000
35.84000 289.000
35.88500 285.000
35.93000 298.000
35.97500 280.000
36.02000 294.000
36.06500 279.000
36.11000 279.000
36.15500 290.000
36.20000 270.000
36.24500 259.000
36.29000 269.000
36.33500 261.000
36.38000 290.000
36.42500 268.000
36.47000 266.000
36.51500 280.000
36.56000 260.000
36.60500 245.000
36.65000 274.000
36.69500 287.000
36.74000 280.000
36.78500 275.000
36.83000 270.000
36.87500 270.000
36.92000 265.000
36.96500 249.000
37.01000 281.000
37.05500 264.000
37.10000 265.000
37.14500 250.000
37.19000 264.000
37.23500 247.000
37.28000 254.000
37.32500 252.000
37.37000 258.000
37.41500 243.000
37.46000 264.000
37.50500 253.000
37.55000 242.000
37.59500 256.000
37.64000 249.000
37.68500 225.000
37.73000 242.000
37.77500 256.000
37.82000 262.000
37.86500 241.000
37.91000 247.000
37.95500 238.000
38.00000 231.000
38.04500 217.000
38.09000 220.000
38.13500 275.000
38.18000 251.000
38.22500 261.000
38.27000 237.000
38.31500 230.000
38.36000 237.000
38.40500 246.000
38.45000 242.000
38.49500 261.000
38.54000 254.000
38.58500 234.000
38.63000 253.000
38.67500 265.000
38.72000 268.000
38.76500 233.000
38.81000 254.000
38.85500 245.000
38.90000 235.000
38.94500 244.000
38.99000 252.000
39.03500 244.000
39.08000 225.000
39.12500 233.000
39.17000 254.000
39.21500 237.000
39.26000 237.000
39.30500 251.000
39.35000 244.000
39.39500 248.000
39.44000 237.000
39.48500 237.000
39.53000 240.000
39.57500 263.000
39.62000 242.000
39.66500 246.000
39.71000 246.000
39.75500 239.000
39.80000 242.000
39.84500 233.000
39.89000 249.000
39.93500 255.000
39.98000 248.000
40.02500 258.000
40.07000 246.000
40.11500 234.000
40.16000 231.000
40.20500 226.000
40.25000 249.000
40.29500 233.000
40.34000 253.000
40.38500 226.000
40.43000 231.000
40.47500 222.000
40.52000 235.000
40.56500 240.000
40.61000 234.000
40.65500 227.000
40.70000 247.000
40.74500 262.000
40.79000 221.000
40.83500 232.000
40.88000 248.000
40.92500 255.000
40.97000 244.000
41.01500 259.000
41.06000 250.000
41.10500 224.000
41.15000 264.000
41.19500 253.000
41.24000 250.000
41.28500 242.000
41.33000 239.000
41.37500 249.000
41.42000 244.000
41.46500 252.000
41.51000 267.000
41.55500 263.000
41.60000 255.000
41.64500 238.000
41.69000 243.000
41.73500 281.000
41.78000 246.000
41.82500 238.000
41.87000 232.000
41.91500 247.000
41.96000 244.000
42.00500 225.000
42.05000 236.000
42.09500 251.000
42.14000 242.000
42.18500 215.000
42.23000 258.000
42.27500 254.000
42.32000 240.000
42.36500 236.000
42.41000 264.000
42.45500 236.000
42.50000 241.000
42.54500 235.000
42.59000 259.000
42.63500 281.000
42.68000 246.000
42.72500 265.000
42.77000 237.000
42.81500 241.000
42.86000 271.000
42.90500 251.000
42.95000 262.000
42.99500 242.000
43.04000 222.000
43.08500 260.000
43.13000 251.000
43.17500 265.000
43.22000 254.000
43.26500 243.000
43.31000 263.000
43.35500 261.000
43.40000 252.000
43.44500 257.000
43.49000 264.000
43.53500 260.000
43.58000 249.000
43.62500 266.000
43.67000 281.000
43.71500 279.000
43.76000 262.000
43.80500 262.000
43.85000 252.000
43.89500 266.000
43.94000 247.000
43.98500 263.000
44.03000 261.000
44.07500 278.000
44.12000 297.000
44.16500 286.000
44.21000 269.000
44.25500 274.000
44.30000 257.000
44.34500 289.000
44.39000 259.000
44.43500 279.000
44.48000 272.000
44.52500 265.000
44.57000 268.000
44.61500 278.000
44.66000 273.000
44.70500 277.000
44.75000 280.000
44.79500 258.000
44.84000 259.000
44.88500 249.000
44.93000 256.000
44.97500 277.000
45.02000 254.000
45.06500 258.000
45.11000 270.000
45.15500 243.000
45.20000 257.000
45.24500 258.000
45.29000 250.000
45.33500 249.000
45.38000 245.000
45.42500 250.000
45.47000 272.000
45.51500 266.000
45.56000 268.000
45.60500 272.000
45.65000 249.000
45.69500 257.000
45.74000 254.000
45.78500 251.000
45.83000 251.000
45.87500 259.000
45.92000 251.000
45.96500 246.000
46.01000 245.000
46.05500 248.000
46.10000 262.000
46.14500 266.000
46.19000 264.000
46.23500 234.000
46.28000 232.000
46.32500 237.000
46.37000 258.000
46.41500 245.000
46.46000 257.000
46.50500 276.000
46.55000 249.000
46.59500 234.000
46.64000 261.000
46.68500 246.000
46.73000 254.000
46.77500 254.000
46.82000 237.000
46.86500 233.000
46.91000 240.000
46.95500 240.000
47.00000 215.000
47.04500 240.000
47.09000 230.000
47.13500 221.000
47.18000 230.000
47.22500 243.000
47.27000 208.000
47.31500 226.000
47.36000 212.000
47.40500 231.000
47.45000 209.000
47.49500 212.000
47.54000 233.000
47.58500 220.000
47.63000 239.000
47.67500 208.000
47.72000 227.000
47.76500 228.000
47.81000 243.000
47.85500 231.000
47.90000 248.000
47.94500 230.000
47.99000 236.000
48.03500 221.000
48.08000 222.000
48.12500 227.000
48.17000 238.000
48.21500 232.000
48.26000 238.000
48.30500 250.000
48.35000 217.000
48.39500 215.000
48.44000 207.000
48.48500 210.000
48.53000 218.000
48.57500 217.000
48.62000 214.000
48.66500 201.000
48.71000 209.000
48.75500 209.000
48.80000 197.000
48.84500 229.000
48.89000 237.000
48.93500 229.000
48.98000 221.000
49.02500 201.000
49.07000 241.000
49.11500 207.000
49.16000 224.000
49.20500 223.000
49.25000 201.000
49.29500 206.000
49.34000 215.000
49.38500 235.000
49.43000 209.000
49.47500 210.000
49.52000 208.000
49.56500 231.000
49.61000 227.000
49.65500 215.000
49.70000 184.000
49.74500 207.000
49.79000 214.000
49.83500 229.000
49.88000 203.000
49.92500 235.000
49.97000 229.000
50.01500 205.000
50.06000 208.000
50.10500 230.000
50.15000 197.000
50.19500 188.000
50.24000 224.000
50.28500 202.000
50.33000 204.000
50.37500 187.000
50.42000 202.000
50.46500 191.000
50.51000 208.000
50.55500 206.000
50.60000 208.000
50.64500 209.000
50.69000 216.000
50.73500 187.000
50.78000 197.000
50.82500 222.000
50.87000 195.000
50.91500 211.000
50.96000 215.000
51.00500 201.000
51.05000 196.000
51.09500 198.000
51.14000 212.000
51.18500 197.000
51.23000 211.000
51.27500 225.000
51.32000 224.000
51.36500 208.000
51.41000 192.000
51.45500 199.000
51.50000 206.000
51.54500 194.000
51.59000 233.000
51.63500 203.000
51.68000 212.000
51.72500 211.000
51.77000 211.000
51.81500 207.000
51.86000 221.000
51.90500 202.000
51.95000 197.000
51.99500 195.000
52.04000 195.000
52.08500 191.000
52.13000 188.000
52.17500 203.000
52.22000 198.000
52.26500 203.000
52.31000 198.000
52.35500 190.000
52.40000 210.000
52.44500 178.000
52.49000 196.000
52.53500 199.000
52.58000 186.000
52.62500 210.000
52.67000 188.000
52.71500 202.000
52.76000 206.000
52.80500 202.000
52.85000 200.000
52.89500 184.000
52.94000 211.000
52.98500 194.000
53.03000 207.000
53.07500 200.000
53.12000 200.000
53.16500 199.000
53.21000 211.000
53.25500 209.000
53.30000 171.000
53.34500 192.000
53.39000 197.000
53.43500 218.000
53.48000 217.000
53.52500 186.000
53.57000 203.000
53.61500 195.000
53.66000 200.000
53.70500 216.000
53.75000 191.000
53.79500 180.000
53.84000 178.000
53.88500 192.000
53.93000 176.000
53.97500 194.000
54.02000 206.000
54.06500 183.000
54.11000 187.000
54.15500 176.000
54.20000 188.000
54.24500 187.000
54.29000 184.000
54.33500 182.000
54.38000 203.000
54.42500 180.000
54.47000 197.000
54.51500 179.000
54.56000 173.000
54.60500 193.000
54.65000 200.000
54.69500 190.000
54.74000 220.000
54.78500 212.000
54.83000 202.000
54.87500 201.000
54.92000 201.000
54.96500 196.000
55.01000 219.000
55.05500 206.000
55.10000 195.000
55.14500 203.000
55.19000 192.000
55.23500 209.000
55.28000 201.000
55.32500 199.000
55.37000 181.000
55.41500 192.000
55.46000 201.000
55.50500 191.000
55.55000 206.000
55.59500 197.000
55.64000 206.000
55.68500 203.000
55.73000 195.000
55.77500 207.000
55.82000 206.000
55.86500 197.000
55.91000 186.000
55.95500 201.000
56.00000 167.000
56.04500 206.000
56.09000 221.000
56.13500 221.000
56.18000 211.000
56.22500 229.000
56.27000 198.000
56.31500 186.000
56.36000 234.000
56.40500 214.000
56.45000 215.000
56.49500 224.000
56.54000 219.000
56.58500 216.000
56.63000 213.000
56.67500 218.000
56.72000 218.000
56.76500 203.000
56.81000 199.000
56.85500 206.000
56.90000 207.000
56.94500 206.000
56.99000 230.000
57.03500 235.000
57.08000 209.000
57.12500 214.000
57.17000 206.000
57.21500 217.000
57.26000 210.000
57.30500 198.000
57.35000 216.000
57.39500 189.000
57.44000 202.000
57.48500 184.000
57.53000 199.000
57.57500 198.000
57.62000 189.000
57.66500 190.000
57.71000 188.000
57.75500 181.000
57.80000 182.000
57.84500 171.000
57.89000 194.000
57.93500 179.000
57.98000 184.000
58.02500 189.000
58.07000 172.000
58.11500 181.000
58.16000 179.000
58.20500 177.000
58.25000 189.000
58.29500 177.000
58.34000 161.000
58.38500 185.000
58.43000 181.000
58.47500 191.000
58.52000 182.000
58.56500 154.000
58.61000 183.000
58.65500 152.000
58.70000 165.000
58.74500 162.000
58.79000 156.000
58.83500 153.000
58.88000 158.000
58.92500 185.000
58.97000 170.000
59.01500 177.000
59.06000 159.000
59.10500 161.000
59.15000 167.000
59.19500 169.000
59.24000 168.000
59.28500 178.000
59.33000 161.000
59.37500 153.000
59.42000 169.000
59.46500 163.000
59.51000 162.000
59.55500 171.000
59.60000 165.000
59.64500 161.000
59.69000 164.000
59.73500 156.000
59.78000 160.000
59.82500 157.000
59.87000 150.000
59.91500 151.000
59.96000 166.000
60.00500 155.000
60.05000 133.000
60.09500 171.000
60.14000 178.000
60.18500 163.000
60.23000 154.000
60.27500 163.000
60.32000 146.000
60.36500 153.000
60.41000 161.000
60.45500 152.000
60.50000 144.000
60.54500 145.000
60.59000 158.000
60.63500 154.000
60.68000 154.000
60.72500 130.000
60.77000 151.000
60.81500 161.000
60.86000 161.000
60.90500 144.000
60.95000 133.000
60.99500 148.000
61.04000 145.000
61.08500 169.000
61.13000 144.000
61.17500 181.000
61.22000 136.000
61.26500 143.000
61.31000 163.000
61.35500 156.000
61.40000 150.000
61.44500 141.000
61.49000 151.000
61.53500 143.000
61.58000 153.000
61.62500 152.000
61.67000 153.000
61.71500 132.000
61.76000 163.000
61.80500 138.000
61.85000 151.000
61.89500 162.000
61.94000 166.000
61.98500 138.000