File: ISoD/xrd_data/HSC006B_range_2.xy
2.00000 534.000
2.04500 530.000
2.09000 577.000
2.13500 536.000
2.18000 572.000
2.22500 557.000
2.27000 485.000
2.31500 486.000
2.36000 422.000
2.40500 375.000
2.45000 331.000
2.49500 305.000
2.54000 268.000
2.58500 255.000
2.63000 222.000
2.67500 227.000
2.72000 198.000
2.76500 187.000
2.81000 205.000
2.85500 183.000
2.90000 166.000
2.94500 147.000
2.99000 179.000
3.03500 173.000
3.08000 144.000
3.12500 153.000
3.17000 157.000
3.21500 166.000
3.26000 145.000
3.30500 148.000
3.35000 141.000
3.39500 142.000
3.44000 150.000
3.48500 133.000
3.53000 157.000
3.57500 161.000
3.62000 170.000
3.66500 133.000
3.71000 149.000
3.75500 147.000
3.80000 151.000
3.84500 144.000
3.89000 117.000
3.93500 131.000
3.98000 140.000
4.02500 130.000
4.07000 141.000
4.11500 125.000
4.16000 132.000
4.20500 117.000
4.25000 137.000
4.29500 129.000
4.34000 134.000
4.38500 134.000
4.43000 127.000
4.47500 119.000
4.52000 118.000
4.56500 130.000
4.61000 120.000
4.65500 126.000
4.70000 119.000
4.74500 132.000
4.79000 117.000
4.83500 115.000
4.88000 112.000
4.92500 136.000
4.97000 115.000
5.01500 129.000
5.06000 126.000
5.10500 114.000
5.15000 124.000
5.19500 110.000
5.24000 112.000
5.28500 120.000
5.33000 109.000
5.37500 106.000
5.42000 119.000
5.46500 102.000
5.51000 120.000
5.55500 99.000
5.60000 100.000
5.64500 113.000
5.69000 106.000
5.73500 111.000
5.78000 119.000
5.82500 107.000
5.87000 117.000
5.91500 110.000
5.96000 108.000
6.00500 112.000
6.05000 112.000
6.09500 118.000
6.14000 118.000
6.18500 96.000
6.23000 111.000
6.27500 135.000
6.32000 103.000
6.36500 98.000
6.41000 125.000
6.45500 119.000
6.50000 108.000
6.54500 113.000
6.59000 115.000
6.63500 108.000
6.68000 95.000
6.72500 115.000
6.77000 117.000
6.81500 116.000
6.86000 107.000
6.90500 117.000
6.95000 114.000
6.99500 113.000
7.04000 132.000
7.08500 111.000
7.13000 112.000
7.17500 105.000
7.22000 115.000
7.26500 113.000
7.31000 100.000
7.35500 123.000
7.40000 121.000
7.44500 103.000
7.49000 127.000
7.53500 114.000
7.58000 101.000
7.62500 113.000
7.67000 111.000
7.71500 111.000
7.76000 118.000
7.80500 119.000
7.85000 111.000
7.89500 111.000
7.94000 127.000
7.98500 119.000
8.03000 117.000
8.07500 115.000
8.12000 124.000
8.16500 111.000
8.21000 121.000
8.25500 127.000
8.30000 117.000
8.34500 112.000
8.39000 110.000
8.43500 127.000
8.48000 107.000
8.52500 132.000
8.57000 115.000
8.61500 119.000
8.66000 114.000
8.70500 123.000
8.75000 116.000
8.79500 101.000
8.84000 114.000
8.88500 128.000
8.93000 116.000
8.97500 121.000
9.02000 105.000
9.06500 123.000
9.11000 120.000
9.15500 116.000
9.20000 122.000
9.24500 112.000
9.29000 136.000
9.33500 119.000
9.38000 116.000
9.42500 126.000
9.47000 117.000
9.51500 136.000
9.56000 135.000
9.60500 115.000
9.65000 110.000
9.69500 128.000
9.74000 120.000
9.78500 122.000
9.83000 123.000
9.87500 106.000
9.92000 118.000
9.96500 106.000
10.01000 118.000
10.05500 108.000
10.10000 132.000
10.14500 129.000
10.19000 135.000
10.23500 135.000
10.28000 132.000
10.32500 130.000
10.37000 146.000
10.41500 127.000
10.46000 137.000
10.50500 130.000
10.55000 122.000
10.59500 114.000
10.64000 137.000
10.68500 126.000
10.73000 117.000
10.77500 118.000
10.82000 124.000
10.86500 121.000
10.91000 132.000
10.95500 131.000
11.00000 121.000
11.04500 147.000
11.09000 139.000
11.13500 128.000
11.18000 143.000
11.22500 144.000
11.27000 149.000
11.31500 140.000
11.36000 127.000
11.40500 146.000
11.45000 143.000
11.49500 129.000
11.54000 118.000
11.58500 140.000
11.63000 131.000
11.67500 140.000
11.72000 131.000
11.76500 132.000
11.81000 143.000
11.85500 136.000
11.90000 132.000
11.94500 138.000
11.99000 157.000
12.03500 162.000
12.08000 134.000
12.12500 146.000
12.17000 138.000
12.21500 143.000
12.26000 142.000
12.30500 145.000
12.35000 156.000
12.39500 145.000
12.44000 143.000
12.48500 132.000
12.53000 129.000
12.57500 145.000
12.62000 136.000
12.66500 170.000
12.71000 154.000
12.75500 170.000
12.80000 177.000
12.84500 157.000
12.89000 156.000
12.93500 163.000
12.98000 147.000
13.02500 166.000
13.07000 158.000
13.11500 165.000
13.16000 162.000
13.20500 166.000
13.25000 173.000
13.29500 170.000
13.34000 172.000
13.38500 167.000
13.43000 171.000
13.47500 157.000
13.52000 180.000
13.56500 171.000
13.61000 160.000
13.65500 172.000
13.70000 182.000
13.74500 178.000
13.79000 162.000
13.83500 177.000
13.88000 165.000
13.92500 155.000
13.97000 181.000
14.01500 167.000
14.06000 187.000
14.10500 167.000
14.15000 179.000
14.19500 172.000
14.24000 186.000
14.28500 178.000
14.33000 193.000
14.37500 190.000
14.42000 176.000
14.46500 182.000
14.51000 195.000
14.55500 169.000
14.60000 167.000
14.64500 186.000
14.69000 186.000
14.73500 175.000
14.78000 181.000
14.82500 180.000
14.87000 156.000
14.91500 186.000
14.96000 179.000
15.00500 159.000
15.05000 182.000
15.09500 191.000
15.14000 191.000
15.18500 178.000
15.23000 193.000
15.27500 178.000
15.32000 184.000
15.36500 185.000
15.41000 205.000
15.45500 183.000
15.50000 165.000
15.54500 198.000
15.59000 207.000
15.63500 201.000
15.68000 182.000
15.72500 216.000
15.77000 187.000
15.81500 197.000
15.86000 200.000
15.90500 211.000
15.95000 182.000
15.99500 212.000
16.04000 220.000
16.08500 220.000
16.13000 214.000
16.17500 195.000
16.22000 209.000
16.26500 201.000
16.31000 197.000
16.35500 208.000
16.40000 214.000
16.44500 206.000
16.49000 207.000
16.53500 206.000
16.58000 202.000
16.62500 211.000
16.67000 231.000
16.71500 196.000
16.76000 215.000
16.80500 210.000
16.85000 206.000
16.89500 212.000
16.94000 200.000
16.98500 205.000
17.03000 227.000
17.07500 228.000
17.12000 210.000
17.16500 217.000
17.21000 199.000
17.25500 214.000
17.30000 195.000
17.34500 197.000
17.39000 201.000
17.43500 210.000
17.48000 213.000
17.52500 217.000
17.57000 211.000
17.61500 213.000
17.66000 214.000
17.70500 217.000
17.75000 219.000
17.79500 200.000
17.84000 226.000
17.88500 193.000
17.93000 232.000
17.97500 196.000
18.02000 224.000
18.06500 198.000
18.11000 209.000
18.15500 239.000
18.20000 243.000
18.24500 209.000
18.29000 208.000
18.33500 212.000
18.38000 229.000
18.42500 221.000
18.47000 244.000
18.51500 267.000
18.56000 273.000
18.60500 318.000
18.65000 329.000
18.69500 332.000
18.74000 333.000
18.78500 325.000
18.83000 276.000
18.87500 272.000
18.92000 281.000
18.96500 265.000
19.01000 249.000
19.05500 236.000
19.10000 249.000
19.14500 235.000
19.19000 241.000
19.23500 213.000
19.28000 234.000
19.32500 222.000
19.37000 204.000
19.41500 229.000
19.46000 218.000
19.50500 208.000
19.55000 196.000
19.59500 215.000
19.64000 232.000
19.68500 254.000
19.73000 230.000
19.77500 239.000
19.82000 232.000
19.86500 232.000
19.91000 248.000
19.95500 249.000
20.00000 213.000
20.04500 225.000
20.09000 227.000
20.13500 227.000
20.18000 201.000
20.22500 238.000
20.27000 236.000
20.31500 219.000
20.36000 245.000
20.40500 211.000
20.45000 228.000
20.49500 220.000
20.54000 215.000
20.58500 240.000
20.63000 240.000
20.67500 209.000
20.72000 225.000
20.76500 238.000
20.81000 229.000
20.85500 232.000
20.90000 241.000
20.94500 211.000
20.99000 235.000
21.03500 220.000
21.08000 224.000
21.12500 238.000
21.17000 225.000
21.21500 221.000
21.26000 232.000
21.30500 242.000
21.35000 206.000
21.39500 246.000
21.44000 228.000
21.48500 236.000
21.53000 221.000
21.57500 211.000
21.62000 222.000
21.66500 222.000
21.71000 227.000
21.75500 213.000
21.80000 254.000
21.84500 239.000
21.89000 262.000
21.93500 237.000
21.98000 233.000
22.02500 255.000
22.07000 236.000
22.11500 250.000
22.16000 220.000
22.20500 237.000
22.25000 245.000
22.29500 234.000
22.34000 247.000
22.38500 242.000
22.43000 252.000
22.47500 249.000
22.52000 245.000
22.56500 240.000
22.61000 259.000
22.65500 243.000
22.70000 240.000
22.74500 244.000
22.79000 246.000
22.83500 276.000
22.88000 213.000
22.92500 243.000
22.97000 247.000
23.01500 231.000
23.06000 253.000
23.10500 229.000
23.15000 260.000
23.19500 263.000
23.24000 235.000
23.28500 249.000
23.33000 257.000
23.37500 268.000
23.42000 240.000
23.46500 244.000
23.51000 246.000
23.55500 241.000
23.60000 227.000
23.64500 272.000
23.69000 253.000
23.73500 241.000
23.78000 257.000
23.82500 280.000
23.87000 282.000
23.91500 257.000
23.96000 274.000
24.00500 302.000
24.05000 308.000
24.09500 322.000
24.14000 339.000
24.18500 365.000
24.23000 384.000
24.27500 398.000
24.32000 386.000
24.36500 381.000
24.41000 414.000
24.45500 391.000
24.50000 389.000
24.54500 359.000
24.59000 326.000
24.63500 325.000
24.68000 291.000
24.72500 296.000
24.77000 283.000
24.81500 295.000
24.86000 265.000
24.90500 262.000
24.95000 237.000
24.99500 278.000
25.04000 261.000
25.08500 281.000
25.13000 259.000
25.17500 238.000
25.22000 252.000
25.26500 265.000
25.31000 244.000
25.35500 271.000
25.40000 261.000
25.44500 233.000
25.49000 242.000
25.53500 257.000
25.58000 223.000
25.62500 248.000
25.67000 240.000
25.71500 246.000
25.76000 246.000
25.80500 243.000
25.85000 273.000
25.89500 239.000
25.94000 241.000
25.98500 259.000
26.03000 243.000
26.07500 249.000
26.12000 243.000
26.16500 229.000
26.21000 241.000
26.25500 242.000
26.30000 248.000
26.34500 237.000
26.39000 222.000
26.43500 204.000
26.48000 245.000
26.52500 241.000
26.57000 254.000
26.61500 247.000
26.66000 225.000
26.70500 249.000
26.75000 240.000
26.79500 232.000
26.84000 223.000
26.88500 227.000
26.93000 213.000
26.97500 227.000
27.02000 241.000
27.06500 235.000
27.11000 241.000
27.15500 231.000
27.20000 250.000
27.24500 225.000
27.29000 237.000
27.33500 233.000
27.38000 230.000
27.42500 264.000
27.47000 251.000
27.51500 250.000
27.56000 242.000
27.60500 275.000
27.65000 269.000
27.69500 301.000
27.74000 347.000
27.78500 380.000
27.83000 424.000
27.87500 468.000
27.92000 529.000
27.96500 535.000
28.01000 525.000
28.05500 404.000
28.10000 323.000
28.14500 278.000
28.19000 257.000
28.23500 226.000
28.28000 247.000
28.32500 239.000
28.37000 219.000
28.41500 233.000
28.46000 210.000
28.50500 228.000
28.55000 195.000
28.59500 200.000
28.64000 217.000
28.68500 208.000
28.73000 224.000
28.77500 224.000
28.82000 215.000
28.86500 221.000
28.91000 216.000
28.95500 208.000
29.00000 187.000
29.04500 215.000
29.09000 228.000
29.13500 239.000
29.18000 228.000
29.22500 225.000
29.27000 205.000
29.31500 208.000
29.36000 189.000
29.40500 223.000
29.45000 208.000
29.49500 200.000
29.54000 201.000
29.58500 202.000
29.63000 203.000
29.67500 208.000
29.72000 223.000
29.76500 227.000
29.81000 208.000
29.85500 214.000
29.90000 208.000
29.94500 192.000
29.99000 229.000
30.03500 208.000
30.08000 211.000
30.12500 216.000
30.17000 216.000
30.21500 197.000
30.26000 197.000
30.30500 210.000
30.35000 221.000
30.39500 217.000
30.44000 206.000
30.48500 220.000
30.53000 230.000
30.57500 214.000
30.62000 197.000
30.66500 206.000
30.71000 223.000
30.75500 212.000
30.80000 211.000
30.84500 205.000
30.89000 207.000
30.93500 207.000
30.98000 207.000
31.02500 207.000
31.07000 216.000
31.11500 197.000
31.16000 198.000
31.20500 178.000
31.25000 196.000
31.29500 197.000
31.34000 182.000
31.38500 191.000
31.43000 192.000
31.47500 192.000
31.52000 185.000
31.56500 192.000
31.61000 192.000
31.65500 201.000
31.70000 194.000
31.74500 167.000
31.79000 180.000
31.83500 176.000
31.88000 191.000
31.92500 178.000
31.97000 166.000
32.01500 170.000
32.06000 171.000
32.10500 172.000
32.15000 182.000
32.19500 197.000
32.24000 163.000
32.28500 181.000
32.33000 168.000
32.37500 191.000
32.42000 170.000
32.46500 171.000
32.51000 179.000
32.55500 183.000
32.60000 175.000
32.64500 166.000
32.69000 191.000
32.73500 176.000
32.78000 178.000
32.82500 176.000
32.87000 154.000
32.91500 170.000
32.96000 174.000
33.00500 180.000
33.05000 152.000
33.09500 179.000
33.14000 165.000
33.18500 174.000
33.23000 169.000
33.27500 181.000
33.32000 189.000
33.36500 163.000
33.41000 158.000
33.45500 172.000
33.50000 155.000
33.54500 154.000
33.59000 171.000
33.63500 183.000
33.68000 171.000
33.72500 151.000
33.77000 155.000
33.81500 163.000
33.86000 160.000
33.90500 180.000
33.95000 174.000
33.99500 151.000
34.04000 152.000
34.08500 155.000
34.13000 138.000
34.17500 157.000
34.22000 160.000
34.26500 156.000
34.31000 166.000
34.35500 167.000
34.40000 150.000
34.44500 154.000
34.49000 140.000
34.53500 139.000
34.58000 165.000
34.62500 162.000
34.67000 143.000
34.71500 169.000
34.76000 148.000
34.80500 158.000
34.85000 151.000
34.89500 152.000
34.94000 160.000
34.98500 146.000
35.03000 150.000
35.07500 155.000
35.12000 143.000
35.16500 146.000
35.21000 153.000
35.25500 152.000
35.30000 143.000
35.34500 149.000
35.39000 145.000
35.43500 146.000
35.48000 155.000
35.52500 165.000
35.57000 143.000
35.61500 144.000
35.66000 169.000
35.70500 141.000
35.75000 143.000
35.79500 152.000
35.84000 165.000
35.88500 142.000
35.93000 157.000
35.97500 155.000
36.02000 143.000
36.06500 137.000
36.11000 148.000
36.15500 153.000
36.20000 142.000
36.24500 131.000
36.29000 159.000
36.33500 143.000
36.38000 127.000
36.42500 124.000
36.47000 142.000
36.51500 153.000
36.56000 155.000
36.60500 145.000
36.65000 143.000
36.69500 124.000
36.74000 137.000
36.78500 139.000
36.83000 120.000
36.87500 136.000
36.92000 140.000
36.96500 132.000
37.01000 138.000
37.05500 125.000
37.10000 139.000
37.14500 126.000
37.19000 142.000
37.23500 139.000
37.28000 135.000
37.32500 145.000
37.37000 124.000
37.41500 126.000
37.46000 126.000
37.50500 150.000
37.55000 149.000
37.59500 134.000
37.64000 157.000
37.68500 131.000
37.73000 145.000
37.77500 134.000
37.82000 143.000
37.86500 125.000
37.91000 136.000
37.95500 134.000
38.00000 115.000
38.04500 128.000
38.09000 141.000
38.13500 142.000
38.18000 127.000
38.22500 129.000
38.27000 134.000
38.31500 146.000
38.36000 133.000
38.40500 124.000
38.45000 118.000
38.49500 131.000
38.54000 134.000
38.58500 121.000
38.63000 125.000
38.67500 138.000
38.72000 129.000
38.76500 128.000
38.81000 142.000
38.85500 115.000
38.90000 140.000
38.94500 139.000
38.99000 149.000
39.03500 129.000
39.08000 134.000
39.12500 144.000
39.17000 134.000
39.21500 126.000
39.26000 128.000
39.30500 135.000
39.35000 150.000
39.39500 134.000
39.44000 116.000
39.48500 142.000
39.53000 144.000
39.57500 128.000
39.62000 141.000
39.66500 131.000
39.71000 139.000
39.75500 150.000
39.80000 121.000
39.84500 140.000
39.89000 142.000
39.93500 128.000
39.98000 127.000
40.02500 141.000
40.07000 135.000
40.11500 123.000
40.16000 139.000
40.20500 127.000
40.25000 138.000
40.29500 126.000
40.34000 129.000
40.38500 126.000
40.43000 128.000
40.47500 145.000
40.52000 141.000
40.56500 139.000
40.61000 148.000
40.65500 127.000
40.70000 138.000
40.74500 137.000
40.79000 119.000
40.83500 129.000
40.88000 128.000
40.92500 129.000
40.97000 149.000
41.01500 127.000
41.06000 133.000
41.10500 118.000
41.15000 126.000
41.19500 150.000
41.24000 154.000
41.28500 136.000
41.33000 129.000
41.37500 132.000
41.42000 151.000
41.46500 132.000
41.51000 145.000
41.55500 137.000
41.60000 139.000
41.64500 145.000
41.69000 143.000
41.73500 133.000
41.78000 132.000
41.82500 139.000
41.87000 145.000
41.91500 134.000
41.96000 141.000
42.00500 130.000
42.05000 136.000
42.09500 146.000
42.14000 138.000
42.18500 136.000
42.23000 135.000
42.27500 163.000
42.32000 130.000
42.36500 137.000
42.41000 144.000
42.45500 140.000
42.50000 141.000
42.54500 136.000
42.59000 131.000
42.63500 163.000
42.68000 143.000
42.72500 137.000
42.77000 144.000
42.81500 136.000
42.86000 147.000
42.90500 151.000
42.95000 142.000
42.99500 133.000
43.04000 135.000
43.08500 137.000
43.13000 128.000
43.17500 146.000
43.22000 144.000
43.26500 126.000
43.31000 134.000
43.35500 141.000
43.40000 153.000
43.44500 145.000
43.49000 158.000
43.53500 143.000
43.58000 143.000
43.62500 144.000
43.67000 133.000
43.71500 141.000
43.76000 132.000
43.80500 154.000
43.85000 138.000
43.89500 133.000
43.94000 127.000
43.98500 113.000
44.03000 153.000
44.07500 120.000
44.12000 140.000
44.16500 144.000
44.21000 145.000
44.25500 147.000
44.30000 123.000
44.34500 135.000
44.39000 132.000
44.43500 134.000
44.48000 120.000
44.52500 129.000
44.57000 165.000
44.61500 125.000
44.66000 146.000
44.70500 145.000
44.75000 165.000
44.79500 139.000
44.84000 147.000
44.88500 152.000
44.93000 147.000
44.97500 124.000
45.02000 153.000
45.06500 130.000
45.11000 140.000
45.15500 134.000
45.20000 137.000
45.24500 148.000
45.29000 141.000
45.33500 140.000
45.38000 140.000
45.42500 136.000
45.47000 129.000
45.51500 101.000
45.56000 135.000
45.60500 134.000
45.65000 139.000
45.69500 132.000
45.74000 143.000
45.78500 140.000
45.83000 127.000
45.87500 119.000
45.92000 148.000
45.96500 149.000
46.01000 154.000
46.05500 141.000
46.10000 139.000
46.14500 144.000
46.19000 138.000
46.23500 126.000
46.28000 145.000
46.32500 149.000
46.37000 134.000
46.41500 136.000
46.46000 120.000
46.50500 142.000
46.55000 141.000
46.59500 130.000
46.64000 143.000
46.68500 140.000
46.73000 126.000
46.77500 120.000
46.82000 128.000
46.86500 125.000
46.91000 138.000
46.95500 117.000
47.00000 133.000
47.04500 126.000
47.09000 128.000
47.13500 132.000
47.18000 119.000
47.22500 112.000
47.27000 119.000
47.31500 134.000
47.36000 126.000
47.40500 138.000
47.45000 124.000
47.49500 126.000
47.54000 120.000
47.58500 115.000
47.63000 118.000
47.67500 124.000
47.72000 113.000
47.76500 106.000
47.81000 134.000
47.85500 128.000
47.90000 124.000
47.94500 137.000
47.99000 132.000
48.03500 139.000
48.08000 127.000
48.12500 117.000
48.17000 123.000
48.21500 122.000
48.26000 134.000
48.30500 109.000
48.35000 137.000
48.39500 118.000
48.44000 121.000
48.48500 125.000
48.53000 132.000
48.57500 119.000
48.62000 114.000
48.66500 127.000
48.71000 140.000
48.75500 137.000
48.80000 136.000
48.84500 125.000
48.89000 141.000
48.93500 119.000
48.98000 124.000
49.02500 119.000
49.07000 138.000
49.11500 120.000
49.16000 120.000
49.20500 124.000
49.25000 116.000
49.29500 134.000
49.34000 132.000
49.38500 116.000
49.43000 122.000
49.47500 124.000
49.52000 133.000
49.56500 113.000
49.61000 138.000
49.65500 120.000
49.70000 128.000
49.74500 125.000
49.79000 118.000
49.83500 128.000
49.88000 128.000
49.92500 127.000
49.97000 128.000
50.01500 113.000
50.06000 129.000
50.10500 123.000
50.15000 113.000
50.19500 113.000
50.24000 114.000
50.28500 122.000
50.33000 126.000
50.37500 134.000
50.42000 119.000
50.46500 132.000
50.51000 131.000
50.55500 121.000
50.60000 126.000
50.64500 116.000
50.69000 125.000
50.73500 116.000
50.78000 126.000
50.82500 116.000
50.87000 131.000
50.91500 122.000
50.96000 122.000
51.00500 119.000
51.05000 118.000
51.09500 140.000
51.14000 134.000
51.18500 100.000
51.23000 123.000
51.27500 122.000
51.32000 109.000
51.36500 110.000
51.41000 124.000
51.45500 103.000
51.50000 123.000
51.54500 111.000
51.59000 124.000
51.63500 126.000
51.68000 140.000
51.72500 122.000
51.77000 117.000
51.81500 108.000
51.86000 107.000
51.90500 111.000
51.95000 117.000
51.99500 123.000
52.04000 112.000
52.08500 109.000
52.13000 117.000
52.17500 107.000
52.22000 124.000
52.26500 114.000
52.31000 122.000
52.35500 115.000
52.40000 111.000
52.44500 110.000
52.49000 107.000
52.53500 135.000
52.58000 134.000
52.62500 120.000
52.67000 137.000
52.71500 113.000
52.76000 103.000
52.80500 122.000
52.85000 140.000
52.89500 110.000
52.94000 106.000
52.98500 105.000
53.03000 122.000
53.07500 123.000
53.12000 107.000
53.16500 115.000
53.21000 110.000
53.25500 117.000
53.30000 108.000
53.34500 130.000
53.39000 118.000
53.43500 115.000
53.48000 103.000
53.52500 119.000
53.57000 107.000
53.61500 121.000
53.66000 118.000
53.70500 113.000
53.75000 113.000
53.79500 117.000
53.84000 109.000
53.88500 110.000
53.93000 117.000
53.97500 119.000
54.02000 111.000
54.06500 100.000
54.11000 112.000
54.15500 121.000
54.20000 108.000
54.24500 117.000
54.29000 114.000
54.33500 107.000
54.38000 116.000
54.42500 118.000
54.47000 120.000
54.51500 115.000
54.56000 117.000
54.60500 104.000
54.65000 104.000
54.69500 112.000
54.74000 123.000
54.78500 134.000
54.83000 109.000
54.87500 115.000
54.92000 126.000
54.96500 112.000
55.01000 121.000
55.05500 109.000
55.10000 99.000
55.14500 105.000
55.19000 117.000
55.23500 111.000
55.28000 120.000
55.32500 110.000
55.37000 108.000
55.41500 127.000
55.46000 109.000
55.50500 111.000
55.55000 106.000
55.59500 115.000
55.64000 113.000
55.68500 102.000
55.73000 108.000
55.77500 92.000
55.82000 108.000
55.86500 102.000
55.91000 96.000
55.95500 107.000
56.00000 107.000
56.04500 122.000
56.09000 107.000
56.13500 113.000
56.18000 123.000
56.22500 124.000
56.27000 106.000
56.31500 109.000
56.36000 101.000
56.40500 101.000
56.45000 108.000
56.49500 110.000
56.54000 109.000
56.58500 95.000
56.63000 122.000
56.67500 95.000
56.72000 109.000
56.76500 96.000
56.81000 108.000
56.85500 103.000
56.90000 110.000
56.94500 115.000
56.99000 93.000
57.03500 97.000
57.08000 104.000
57.12500 101.000
57.17000 106.000
57.21500 107.000
57.26000 103.000
57.30500 105.000
57.35000 113.000
57.39500 118.000
57.44000 116.000
57.48500 108.000
57.53000 119.000
57.57500 98.000
57.62000 115.000
57.66500 121.000
57.71000 116.000
57.75500 116.000
57.80000 105.000
57.84500 93.000
57.89000 102.000
57.93500 119.000
57.98000 122.000
58.02500 103.000
58.07000 105.000
58.11500 104.000
58.16000 111.000
58.20500 111.000
58.25000 104.000
58.29500 94.000
58.34000 106.000
58.38500 92.000
58.43000 116.000
58.47500 111.000
58.52000 100.000
58.56500 106.000
58.61000 105.000
58.65500 80.000
58.70000 112.000
58.74500 106.000
58.79000 97.000
58.83500 91.000
58.88000 116.000
58.92500 90.000
58.97000 100.000
59.01500 101.000
59.06000 102.000
59.10500 97.000
59.15000 110.000
59.19500 103.000
59.24000 95.000
59.28500 87.000
59.33000 89.000
59.37500 104.000
59.42000 90.000
59.46500 107.000
59.51000 107.000
59.55500 96.000
59.60000 110.000
59.64500 104.000
59.69000 100.000
59.73500 103.000
59.78000 94.000
59.82500 98.000
59.87000 111.000
59.91500 103.000
59.96000 93.000
60.00500 90.000
60.05000 103.000
60.09500 107.000
60.14000 109.000
60.18500 81.000
60.23000 105.000
60.27500 98.000
60.32000 92.000
60.36500 103.000
60.41000 103.000
60.45500 96.000
60.50000 79.000
60.54500 105.000
60.59000 111.000
60.63500 109.000
60.68000 92.000
60.72500 95.000
60.77000 90.000
60.81500 102.000
60.86000 102.000
60.90500 105.000
60.95000 103.000
60.99500 98.000
61.04000 103.000
61.08500 99.000
61.13000 103.000
61.17500 92.000
61.22000 97.000
61.26500 90.000
61.31000 99.000
61.35500 98.000
61.40000 88.000
61.44500 93.000
61.49000 94.000
61.53500 96.000
61.58000 88.000
61.62500 91.000
61.67000 100.000
61.71500 116.000
61.76000 106.000
61.80500 100.000
61.85000 95.000
61.89500 116.000
61.94000 93.000
61.98500 86.000