File: ISoD/xrd_data/HSC085.xyd
2.00000 2.000
2.04500 4.000
2.09000 2.000
2.13500 3.000
2.18000 1.000
2.22500 2.000
2.27000 4.000
2.31500 2.000
2.36000 1.000
2.40500 0.000
2.45000 3.000
2.49500 3.000
2.54000 1.000
2.58500 1.000
2.63000 1.000
2.67500 4.000
2.72000 3.000
2.76500 1.000
2.81000 1.000
2.85500 3.000
2.90000 3.000
2.94500 2.000
2.99000 3.000
3.03500 15.000
3.08000 14.000
3.12500 37.000
3.17000 65.000
3.21500 96.000
3.26000 110.000
3.30500 96.000
3.35000 110.000
3.39500 105.000
3.44000 118.000
3.48500 131.000
3.53000 140.000
3.57500 129.000
3.62000 132.000
3.66500 134.000
3.71000 135.000
3.75500 152.000
3.80000 150.000
3.84500 156.000
3.89000 144.000
3.93500 151.000
3.98000 142.000
4.02500 178.000
4.07000 172.000
4.11500 149.000
4.16000 179.000
4.20500 182.000
4.25000 165.000
4.29500 184.000
4.34000 183.000
4.38500 195.000
4.43000 177.000
4.47500 177.000
4.52000 178.000
4.56500 193.000
4.61000 178.000
4.65500 173.000
4.70000 187.000
4.74500 192.000
4.79000 171.000
4.83500 196.000
4.88000 207.000
4.92500 200.000
4.97000 197.000
5.01500 189.000
5.06000 185.000
5.10500 208.000
5.15000 245.000
5.19500 227.000
5.24000 212.000
5.28500 212.000
5.33000 210.000
5.37500 215.000
5.42000 237.000
5.46500 211.000
5.51000 222.000
5.55500 226.000
5.60000 244.000
5.64500 239.000
5.69000 244.000
5.73500 238.000
5.78000 228.000
5.82500 230.000
5.87000 240.000
5.91500 228.000
5.96000 256.000
6.00500 222.000
6.05000 227.000
6.09500 249.000
6.14000 250.000
6.18500 263.000
6.23000 237.000
6.27500 254.000
6.32000 232.000
6.36500 231.000
6.41000 255.000
6.45500 249.000
6.50000 257.000
6.54500 252.000
6.59000 238.000
6.63500 265.000
6.68000 264.000
6.72500 244.000
6.77000 259.000
6.81500 282.000
6.86000 248.000
6.90500 258.000
6.95000 262.000
6.99500 261.000
7.04000 277.000
7.08500 286.000
7.13000 242.000
7.17500 251.000
7.22000 284.000
7.26500 276.000
7.31000 262.000
7.35500 278.000
7.40000 271.000
7.44500 253.000
7.49000 279.000
7.53500 279.000
7.58000 285.000
7.62500 281.000
7.67000 276.000
7.71500 267.000
7.76000 268.000
7.80500 277.000
7.85000 253.000
7.89500 313.000
7.94000 276.000
7.98500 264.000
8.03000 273.000
8.07500 268.000
8.12000 281.000
8.16500 311.000
8.21000 296.000
8.25500 266.000
8.30000 271.000
8.34500 280.000
8.39000 277.000
8.43500 291.000
8.48000 257.000
8.52500 303.000
8.57000 294.000
8.61500 300.000
8.66000 290.000
8.70500 283.000
8.75000 288.000
8.79500 287.000
8.84000 307.000
8.88500 296.000
8.93000 296.000
8.97500 281.000
9.02000 299.000
9.06500 287.000
9.11000 274.000
9.15500 282.000
9.20000 287.000
9.24500 286.000
9.29000 298.000
9.33500 320.000
9.38000 296.000
9.42500 309.000
9.47000 266.000
9.51500 291.000
9.56000 288.000
9.60500 299.000
9.65000 289.000
9.69500 294.000
9.74000 322.000
9.78500 290.000
9.83000 269.000
9.87500 300.000
9.92000 293.000
9.96500 306.000
10.01000 296.000
10.05500 323.000
10.10000 299.000
10.14500 311.000
10.19000 292.000
10.23500 299.000
10.28000 298.000
10.32500 278.000
10.37000 268.000
10.41500 304.000
10.46000 270.000
10.50500 291.000
10.55000 285.000
10.59500 274.000
10.64000 281.000
10.68500 292.000
10.73000 294.000
10.77500 300.000
10.82000 284.000
10.86500 300.000
10.91000 275.000
10.95500 281.000
11.00000 303.000
11.04500 293.000
11.09000 330.000
11.13500 309.000
11.18000 317.000
11.22500 291.000
11.27000 312.000
11.31500 309.000
11.36000 295.000
11.40500 317.000
11.45000 295.000
11.49500 303.000
11.54000 308.000
11.58500 320.000
11.63000 283.000
11.67500 317.000
11.72000 317.000
11.76500 312.000
11.81000 323.000
11.85500 331.000
11.90000 388.000
11.94500 448.000
11.99000 558.000
12.03500 925.000
12.08000 1600.000
12.12500 2304.000
12.17000 3373.000
12.21500 6420.000
12.26000 13018.000
12.30500 6061.000
12.35000 775.000
12.39500 451.000
12.44000 408.000
12.48500 410.000
12.53000 414.000
12.57500 399.000
12.62000 336.000
12.66500 330.000
12.71000 338.000
12.75500 311.000
12.80000 303.000
12.84500 317.000
12.89000 334.000
12.93500 315.000
12.98000 348.000
13.02500 350.000
13.07000 385.000
13.11500 370.000
13.16000 323.000
13.20500 363.000
13.25000 389.000
13.29500 528.000
13.34000 775.000
13.38500 1303.000
13.43000 2548.000
13.47500 1622.000
13.52000 435.000
13.56500 332.000
13.61000 332.000
13.65500 383.000
13.70000 390.000
13.74500 410.000
13.79000 420.000
13.83500 409.000
13.88000 325.000
13.92500 326.000
13.97000 305.000
14.01500 326.000
14.06000 309.000
14.10500 299.000
14.15000 315.000
14.19500 309.000
14.24000 315.000
14.28500 304.000
14.33000 286.000
14.37500 297.000
14.42000 293.000
14.46500 310.000
14.51000 305.000
14.55500 279.000
14.60000 296.000
14.64500 317.000
14.69000 304.000
14.73500 308.000
14.78000 291.000
14.82500 275.000
14.87000 294.000
14.91500 297.000
14.96000 290.000
15.00500 321.000
15.05000 327.000
15.09500 293.000
15.14000 288.000
15.18500 295.000
15.23000 309.000
15.27500 307.000
15.32000 297.000
15.36500 290.000
15.41000 297.000
15.45500 304.000
15.50000 333.000
15.54500 315.000
15.59000 305.000
15.63500 298.000
15.68000 300.000
15.72500 287.000
15.77000 295.000
15.81500 302.000
15.86000 315.000
15.90500 310.000
15.95000 321.000
15.99500 284.000
16.04000 282.000
16.08500 294.000
16.13000 312.000
16.17500 319.000
16.22000 346.000
16.26500 351.000
16.31000 389.000
16.35500 530.000
16.40000 797.000
16.44500 974.000
16.49000 850.000
16.53500 512.000
16.58000 384.000
16.62500 329.000
16.67000 319.000
16.71500 356.000
16.76000 356.000
16.80500 367.000
16.85000 427.000
16.89500 559.000
16.94000 844.000
16.98500 458.000
17.03000 323.000
17.07500 306.000
17.12000 296.000
17.16500 307.000
17.21000 305.000
17.25500 311.000
17.30000 284.000
17.34500 300.000
17.39000 313.000
17.43500 322.000
17.48000 293.000
17.52500 314.000
17.57000 314.000
17.61500 295.000
17.66000 310.000
17.70500 322.000
17.75000 313.000
17.79500 301.000
17.84000 326.000
17.88500 319.000
17.93000 364.000
17.97500 482.000
18.02000 679.000
18.06500 1215.000
18.11000 742.000
18.15500 357.000
18.20000 323.000
18.24500 327.000
18.29000 327.000
18.33500 306.000
18.38000 311.000
18.42500 318.000
18.47000 323.000
18.51500 326.000
18.56000 312.000
18.60500 304.000
18.65000 344.000
18.69500 352.000
18.74000 321.000
18.78500 311.000
18.83000 316.000
18.87500 307.000
18.92000 314.000
18.96500 293.000
19.01000 285.000
19.05500 321.000
19.10000 316.000
19.14500 338.000
19.19000 318.000
19.23500 363.000
19.28000 409.000
19.32500 462.000
19.37000 726.000
19.41500 1232.000
19.46000 1946.000
19.50500 891.000
19.55000 646.000
19.59500 994.000
19.64000 1764.000
19.68500 704.000
19.73000 391.000
19.77500 340.000
19.82000 356.000
19.86500 303.000
19.91000 326.000
19.95500 315.000
20.00000 299.000
20.04500 307.000
20.09000 315.000
20.13500 321.000
20.18000 314.000
20.22500 312.000
20.27000 308.000
20.31500 310.000
20.36000 315.000
20.40500 317.000
20.45000 331.000
20.49500 339.000
20.54000 413.000
20.58500 480.000
20.63000 485.000
20.67500 360.000
20.72000 326.000
20.76500 331.000
20.81000 329.000
20.85500 301.000
20.90000 314.000
20.94500 331.000
20.99000 300.000
21.03500 338.000
21.08000 319.000
21.12500 341.000
21.17000 316.000
21.21500 310.000
21.26000 296.000
21.30500 350.000
21.35000 334.000
21.39500 343.000
21.44000 341.000
21.48500 333.000
21.53000 380.000
21.57500 463.000
21.62000 694.000
21.66500 1083.000
21.71000 1283.000
21.75500 549.000
21.80000 387.000
21.84500 396.000
21.89000 378.000
21.93500 366.000
21.98000 361.000
22.02500 383.000
22.07000 357.000
22.11500 408.000
22.16000 521.000
22.20500 801.000
22.25000 462.000
22.29500 352.000
22.34000 331.000
22.38500 329.000
22.43000 333.000
22.47500 318.000
22.52000 322.000
22.56500 350.000
22.61000 328.000
22.65500 322.000
22.70000 315.000
22.74500 344.000
22.79000 302.000
22.83500 321.000
22.88000 331.000
22.92500 318.000
22.97000 316.000
23.01500 314.000
23.06000 322.000
23.10500 321.000
23.15000 333.000
23.19500 306.000
23.24000 338.000
23.28500 312.000
23.33000 309.000
23.37500 331.000
23.42000 299.000
23.46500 323.000
23.51000 313.000
23.55500 295.000
23.60000 299.000
23.64500 318.000
23.69000 335.000
23.73500 353.000
23.78000 335.000
23.82500 346.000
23.87000 403.000
23.91500 487.000
23.96000 669.000
24.00500 483.000
24.05000 366.000
24.09500 348.000
24.14000 334.000
24.18500 357.000
24.23000 362.000
24.27500 455.000
24.32000 626.000
24.36500 604.000
24.41000 419.000
24.45500 332.000
24.50000 357.000
24.54500 364.000
24.59000 432.000
24.63500 581.000
24.68000 784.000
24.72500 639.000
24.77000 367.000
24.81500 356.000
24.86000 359.000
24.90500 357.000
24.95000 343.000
24.99500 381.000
25.04000 408.000
25.08500 470.000
25.13000 468.000
25.17500 481.000
25.22000 468.000
25.26500 418.000
25.31000 422.000
25.35500 385.000
25.40000 428.000
25.44500 493.000
25.49000 551.000
25.53500 513.000
25.58000 643.000
25.62500 993.000
25.67000 1820.000
25.71500 3857.000
25.76000 5376.000
25.80500 2354.000
25.85000 1004.000
25.89500 625.000
25.94000 472.000
25.98500 467.000
26.03000 455.000
26.07500 471.000
26.12000 629.000
26.16500 1061.000
26.21000 2254.000
26.25500 4614.000
26.30000 3309.000
26.34500 1098.000
26.39000 653.000
26.43500 627.000
26.48000 726.000
26.52500 522.000
26.57000 391.000
26.61500 368.000
26.66000 332.000
26.70500 324.000
26.75000 373.000
26.79500 367.000
26.84000 381.000
26.88500 383.000
26.93000 428.000
26.97500 500.000
27.02000 698.000
27.06500 1012.000
27.11000 955.000
27.15500 491.000
27.20000 434.000
27.24500 406.000
27.29000 369.000
27.33500 390.000
27.38000 393.000
27.42500 386.000
27.47000 399.000
27.51500 463.000
27.56000 602.000
27.60500 757.000
27.65000 1339.000
27.69500 2545.000
27.74000 5351.000
27.78500 9027.000
27.83000 4264.000
27.87500 1491.000
27.92000 745.000
27.96500 507.000
28.01000 470.000
28.05500 378.000
28.10000 365.000
28.14500 353.000
28.19000 353.000
28.23500 332.000
28.28000 341.000
28.32500 371.000
28.37000 484.000
28.41500 510.000
28.46000 381.000
28.50500 323.000
28.55000 293.000
28.59500 290.000
28.64000 306.000
28.68500 282.000
28.73000 292.000
28.77500 305.000
28.82000 283.000
28.86500 317.000
28.91000 281.000
28.95500 339.000
29.00000 390.000
29.04500 446.000
29.09000 297.000
29.13500 286.000
29.18000 322.000
29.22500 287.000
29.27000 281.000
29.31500 272.000
29.36000 284.000
29.40500 293.000
29.45000 307.000
29.49500 313.000
29.54000 347.000
29.58500 339.000
29.63000 375.000
29.67500 335.000
29.72000 319.000
29.76500 267.000
29.81000 299.000
29.85500 283.000
29.90000 324.000
29.94500 348.000
29.99000 413.000
30.03500 617.000
30.08000 976.000
30.12500 1686.000
30.17000 1069.000
30.21500 420.000
30.26000 329.000
30.30500 327.000
30.35000 414.000
30.39500 337.000
30.44000 309.000
30.48500 322.000
30.53000 307.000
30.57500 351.000
30.62000 384.000
30.66500 439.000
30.71000 618.000
30.75500 924.000
30.80000 1439.000
30.84500 917.000
30.89000 485.000
30.93500 359.000
30.98000 338.000
31.02500 289.000
31.07000 284.000
31.11500 294.000
31.16000 304.000
31.20500 287.000
31.25000 268.000
31.29500 251.000
31.34000 270.000
31.38500 255.000
31.43000 258.000
31.47500 288.000
31.52000 281.000
31.56500 275.000
31.61000 454.000
31.65500 770.000
31.70000 756.000
31.74500 499.000
31.79000 324.000
31.83500 315.000
31.88000 318.000
31.92500 335.000
31.97000 297.000
32.01500 342.000
32.06000 421.000
32.10500 547.000
32.15000 377.000
32.19500 303.000
32.24000 247.000
32.28500 250.000
32.33000 227.000
32.37500 232.000
32.42000 238.000
32.46500 211.000
32.51000 251.000
32.55500 248.000
32.60000 232.000
32.64500 247.000
32.69000 203.000
32.73500 250.000
32.78000 232.000
32.82500 210.000
32.87000 225.000
32.91500 223.000
32.96000 252.000
33.00500 218.000
33.05000 221.000
33.09500 242.000
33.14000 275.000
33.18500 333.000
33.23000 357.000
33.27500 276.000
33.32000 286.000
33.36500 326.000
33.41000 336.000
33.45500 277.000
33.50000 346.000
33.54500 316.000
33.59000 263.000
33.63500 290.000
33.68000 414.000
33.72500 588.000
33.77000 396.000
33.81500 272.000
33.86000 238.000
33.90500 293.000
33.95000 376.000
33.99500 502.000
34.04000 727.000
34.08500 527.000
34.13000 298.000
34.17500 256.000
34.22000 246.000
34.26500 215.000
34.31000 224.000
34.35500 220.000
34.40000 207.000
34.44500 226.000
34.49000 239.000
34.53500 271.000
34.58000 291.000
34.62500 360.000
34.67000 388.000
34.71500 256.000
34.76000 224.000
34.80500 250.000
34.85000 265.000
34.89500 338.000
34.94000 419.000
34.98500 464.000
35.03000 293.000
35.07500 250.000
35.12000 213.000
35.16500 200.000
35.21000 211.000
35.25500 213.000
35.30000 216.000
35.34500 198.000
35.39000 206.000
35.43500 204.000
35.48000 196.000
35.52500 204.000
35.57000 199.000
35.61500 196.000
35.66000 222.000
35.70500 195.000
35.75000 228.000
35.79500 274.000
35.84000 265.000
35.88500 180.000
35.93000 187.000
35.97500 180.000
36.02000 196.000
36.06500 180.000
36.11000 189.000
36.15500 189.000
36.20000 177.000
36.24500 175.000
36.29000 177.000
36.33500 189.000
36.38000 165.000
36.42500 179.000
36.47000 197.000
36.51500 180.000
36.56000 177.000
36.60500 199.000
36.65000 180.000
36.69500 197.000
36.74000 184.000
36.78500 180.000
36.83000 176.000
36.87500 182.000
36.92000 177.000
36.96500 227.000
37.01000 321.000
37.05500 398.000
37.10000 369.000
37.14500 225.000
37.19000 191.000
37.23500 198.000
37.28000 187.000
37.32500 172.000
37.37000 165.000
37.41500 173.000
37.46000 167.000
37.50500 159.000
37.55000 144.000
37.59500 166.000
37.64000 160.000
37.68500 158.000
37.73000 149.000
37.77500 178.000
37.82000 164.000
37.86500 167.000
37.91000 162.000
37.95500 164.000
38.00000 167.000
38.04500 191.000
38.09000 185.000
38.13500 172.000
38.18000 198.000
38.22500 246.000
38.27000 284.000
38.31500 372.000
38.36000 426.000
38.40500 261.000
38.45000 224.000
38.49500 197.000
38.54000 212.000
38.58500 200.000
38.63000 157.000
38.67500 165.000
38.72000 168.000
38.76500 149.000
38.81000 147.000
38.85500 174.000
38.90000 164.000
38.94500 157.000
38.99000 169.000
39.03500 159.000
39.08000 178.000
39.12500 162.000
39.17000 149.000
39.21500 160.000
39.26000 165.000
39.30500 187.000
39.35000 197.000
39.39500 176.000
39.44000 193.000
39.48500 276.000
39.53000 296.000
39.57500 211.000
39.62000 167.000
39.66500 173.000
39.71000 179.000
39.75500 203.000
39.80000 185.000
39.84500 252.000
39.89000 332.000
39.93500 254.000
39.98000 204.000
40.02500 179.000
40.07000 164.000
40.11500 169.000
40.16000 173.000
40.20500 168.000
40.25000 182.000
40.29500 167.000
40.34000 185.000
40.38500 173.000
40.43000 187.000
40.47500 206.000
40.52000 273.000
40.56500 358.000
40.61000 426.000
40.65500 259.000
40.70000 213.000
40.74500 208.000
40.79000 200.000
40.83500 207.000
40.88000 228.000
40.92500 196.000
40.97000 189.000
41.01500 214.000
41.06000 302.000
41.10500 391.000
41.15000 400.000
41.19500 264.000
41.24000 315.000
41.28500 433.000
41.33000 338.000
41.37500 185.000
41.42000 186.000
41.46500 177.000
41.51000 157.000
41.55500 164.000
41.60000 169.000
41.64500 168.000
41.69000 212.000
41.73500 189.000
41.78000 169.000
41.82500 180.000
41.87000 175.000
41.91500 197.000
41.96000 255.000
42.00500 210.000
42.05000 226.000
42.09500 320.000
42.14000 422.000
42.18500 427.000
42.23000 332.000
42.27500 226.000
42.32000 176.000
42.36500 174.000
42.41000 167.000
42.45500 164.000
42.50000 169.000
42.54500 209.000
42.59000 270.000
42.63500 266.000
42.68000 211.000
42.72500 212.000
42.77000 208.000
42.81500 180.000
42.86000 163.000
42.90500 162.000
42.95000 147.000
42.99500 180.000
43.04000 194.000
43.08500 157.000
43.13000 161.000
43.17500 165.000
43.22000 159.000
43.26500 157.000
43.31000 150.000
43.35500 138.000
43.40000 166.000
43.44500 151.000
43.49000 171.000
43.53500 150.000
43.58000 156.000
43.62500 166.000
43.67000 159.000
43.71500 170.000
43.76000 171.000
43.80500 178.000
43.85000 211.000
43.89500 186.000
43.94000 155.000
43.98500 230.000
44.03000 217.000
44.07500 209.000
44.12000 210.000
44.16500 258.000
44.21000 361.000
44.25500 404.000
44.30000 262.000
44.34500 208.000
44.39000 191.000
44.43500 191.000
44.48000 206.000
44.52500 258.000
44.57000 271.000
44.61500 236.000
44.66000 244.000
44.70500 287.000
44.75000 282.000
44.79500 194.000
44.84000 179.000
44.88500 176.000
44.93000 200.000
44.97500 266.000
45.02000 294.000
45.06500 240.000
45.11000 259.000
45.15500 310.000
45.20000 183.000
45.24500 159.000
45.29000 203.000
45.33500 168.000
45.38000 160.000
45.42500 168.000
45.47000 141.000
45.51500 146.000
45.56000 170.000
45.60500 185.000
45.65000 172.000
45.69500 154.000
45.74000 156.000
45.78500 153.000
45.83000 138.000
45.87500 133.000
45.92000 138.000
45.96500 136.000
46.01000 160.000
46.05500 166.000
46.10000 152.000
46.14500 168.000
46.19000 212.000
46.23500 270.000
46.28000 230.000
46.32500 213.000
46.37000 251.000
46.41500 296.000
46.46000 206.000
46.50500 171.000
46.55000 148.000
46.59500 190.000
46.64000 201.000
46.68500 202.000
46.73000 200.000
46.77500 208.000
46.82000 265.000
46.86500 294.000
46.91000 312.000
46.95500 348.000
47.00000 374.000
47.04500 355.000
47.09000 368.000
47.13500 246.000
47.18000 238.000
47.22500 194.000
47.27000 170.000
47.31500 188.000
47.36000 186.000
47.40500 219.000
47.45000 249.000
47.49500 191.000
47.54000 186.000
47.58500 193.000
47.63000 209.000
47.67500 220.000
47.72000 242.000
47.76500 195.000
47.81000 156.000
47.85500 165.000
47.90000 134.000
47.94500 150.000
47.99000 152.000
48.03500 147.000
48.08000 127.000
48.12500 119.000
48.17000 148.000
48.21500 127.000
48.26000 134.000
48.30500 122.000
48.35000 136.000
48.39500 146.000
48.44000 143.000
48.48500 144.000
48.53000 160.000
48.57500 132.000
48.62000 150.000
48.66500 153.000
48.71000 141.000
48.75500 160.000
48.80000 148.000
48.84500 141.000
48.89000 142.000
48.93500 158.000
48.98000 210.000
49.02500 251.000
49.07000 210.000
49.11500 170.000
49.16000 161.000
49.20500 158.000
49.25000 154.000
49.29500 151.000
49.34000 156.000
49.38500 171.000
49.43000 166.000
49.47500 169.000
49.52000 204.000
49.56500 292.000
49.61000 354.000
49.65500 408.000
49.70000 352.000
49.74500 234.000
49.79000 141.000
49.83500 169.000
49.88000 138.000
49.92500 151.000
49.97000 152.000
50.01500 141.000
50.06000 185.000
50.10500 197.000
50.15000 199.000
50.19500 292.000
50.24000 314.000
50.28500 279.000
50.33000 248.000
50.37500 217.000
50.42000 235.000
50.46500 298.000
50.51000 264.000
50.55500 218.000
50.60000 178.000
50.64500 177.000
50.69000 145.000
50.73500 154.000
50.78000 162.000
50.82500 144.000
50.87000 150.000
50.91500 130.000
50.96000 140.000
51.00500 149.000
51.05000 150.000
51.09500 143.000
51.14000 143.000
51.18500 152.000
51.23000 133.000
51.27500 143.000
51.32000 153.000
51.36500 172.000
51.41000 184.000
51.45500 265.000
51.50000 221.000
51.54500 171.000
51.59000 169.000
51.63500 150.000
51.68000 165.000
51.72500 174.000
51.77000 185.000
51.81500 202.000
51.86000 244.000
51.90500 189.000
51.95000 168.000
51.99500 142.000
52.04000 153.000
52.08500 136.000
52.13000 152.000
52.17500 170.000
52.22000 154.000
52.26500 151.000
52.31000 139.000
52.35500 142.000
52.40000 128.000
52.44500 142.000
52.49000 157.000
52.53500 143.000
52.58000 151.000
52.62500 147.000
52.67000 150.000
52.71500 116.000
52.76000 164.000
52.80500 144.000
52.85000 140.000
52.89500 171.000
52.94000 231.000
52.98500 144.000
53.03000 172.000
53.07500 138.000
53.12000 140.000
53.16500 124.000
53.21000 129.000
53.25500 139.000
53.30000 187.000
53.34500 203.000
53.39000 294.000
53.43500 263.000
53.48000 243.000
53.52500 203.000
53.57000 145.000
53.61500 150.000
53.66000 139.000
53.70500 153.000
53.75000 144.000
53.79500 142.000
53.84000 167.000
53.88500 163.000
53.93000 163.000
53.97500 183.000
54.02000 246.000
54.06500 291.000
54.11000 253.000
54.15500 206.000
54.20000 165.000
54.24500 144.000
54.29000 140.000
54.33500 159.000
54.38000 142.000
54.42500 137.000
54.47000 156.000
54.51500 177.000
54.56000 164.000
54.60500 169.000
54.65000 151.000
54.69500 139.000
54.74000 162.000
54.78500 147.000
54.83000 184.000
54.87500 202.000
54.92000 244.000
54.96500 263.000
55.01000 314.000
55.05500 345.000
55.10000 407.000
55.14500 352.000
55.19000 280.000
55.23500 242.000
55.28000 218.000
55.32500 206.000
55.37000 183.000
55.41500 197.000
55.46000 216.000
55.50500 187.000
55.55000 181.000
55.59500 151.000
55.64000 152.000
55.68500 147.000
55.73000 150.000
55.77500 159.000
55.82000 183.000
55.86500 180.000
55.91000 162.000
55.95500 134.000
56.00000 145.000
56.04500 123.000
56.09000 118.000
56.13500 147.000
56.18000 126.000
56.22500 126.000
56.27000 138.000
56.31500 131.000
56.36000 141.000
56.40500 139.000
56.45000 145.000
56.49500 125.000
56.54000 130.000
56.58500 158.000
56.63000 190.000
56.67500 223.000
56.72000 254.000
56.76500 263.000
56.81000 198.000
56.85500 161.000
56.90000 183.000
56.94500 157.000
56.99000 165.000
57.03500 179.000
57.08000 166.000
57.12500 205.000
57.17000 227.000
57.21500 200.000
57.26000 170.000
57.30500 199.000
57.35000 253.000
57.39500 299.000
57.44000 252.000
57.48500 207.000
57.53000 176.000
57.57500 162.000
57.62000 151.000
57.66500 137.000
57.71000 122.000
57.75500 119.000
57.80000 116.000
57.84500 144.000
57.89000 116.000
57.93500 136.000
57.98000 131.000
58.02500 130.000
58.07000 140.000
58.11500 136.000
58.16000 124.000
58.20500 164.000
58.25000 130.000
58.29500 143.000
58.34000 133.000
58.38500 115.000
58.43000 139.000
58.47500 116.000
58.52000 117.000
58.56500 104.000
58.61000 132.000
58.65500 134.000
58.70000 113.000
58.74500 146.000
58.79000 131.000
58.83500 144.000
58.88000 136.000
58.92500 150.000
58.97000 154.000
59.01500 158.000
59.06000 132.000
59.10500 134.000
59.15000 119.000
59.19500 122.000
59.24000 116.000
59.28500 139.000
59.33000 126.000
59.37500 118.000
59.42000 115.000
59.46500 149.000
59.51000 122.000
59.55500 135.000
59.60000 118.000
59.64500 145.000
59.69000 136.000
59.73500 138.000
59.78000 141.000
59.82500 158.000
59.87000 156.000
59.91500 202.000
59.96000 237.000
60.00500 227.000
60.05000 182.000
60.09500 164.000
60.14000 138.000
60.18500 172.000
60.23000 165.000
60.27500 187.000
60.32000 205.000
60.36500 185.000
60.41000 197.000
60.45500 178.000
60.50000 146.000
60.54500 145.000
60.59000 165.000
60.63500 146.000
60.68000 144.000
60.72500 138.000
60.77000 141.000
60.81500 137.000
60.86000 145.000
60.90500 135.000
60.95000 134.000
60.99500 152.000
61.04000 130.000
61.08500 111.000
61.13000 113.000
61.17500 128.000
61.22000 126.000
61.26500 124.000
61.31000 109.000
61.35500 115.000
61.40000 124.000
61.44500 134.000
61.49000 122.000
61.53500 132.000
61.58000 141.000
61.62500 125.000
61.67000 121.000
61.71500 131.000
61.76000 129.000
61.80500 110.000
61.85000 109.000
61.89500 131.000
61.94000 109.000
61.98500 128.000