File: ISoD/xrd_data/HSC005III_range_1.xy
2.00000 378.000
2.04500 378.000
2.09000 371.000
2.13500 360.000
2.18000 328.000
2.22500 328.000
2.27000 273.000
2.31500 261.000
2.36000 274.000
2.40500 267.000
2.45000 253.000
2.49500 247.000
2.54000 222.000
2.58500 229.000
2.63000 240.000
2.67500 209.000
2.72000 210.000
2.76500 199.000
2.81000 218.000
2.85500 203.000
2.90000 205.000
2.94500 204.000
2.99000 212.000
3.03500 197.000
3.08000 192.000
3.12500 189.000
3.17000 185.000
3.21500 177.000
3.26000 196.000
3.30500 197.000
3.35000 181.000
3.39500 170.000
3.44000 189.000
3.48500 193.000
3.53000 162.000
3.57500 195.000
3.62000 178.000
3.66500 177.000
3.71000 184.000
3.75500 178.000
3.80000 190.000
3.84500 183.000
3.89000 176.000
3.93500 163.000
3.98000 187.000
4.02500 180.000
4.07000 149.000
4.11500 188.000
4.16000 164.000
4.20500 172.000
4.25000 174.000
4.29500 179.000
4.34000 178.000
4.38500 191.000
4.43000 206.000
4.47500 197.000
4.52000 173.000
4.56500 190.000
4.61000 191.000
4.65500 176.000
4.70000 188.000
4.74500 184.000
4.79000 191.000
4.83500 190.000
4.88000 190.000
4.92500 167.000
4.97000 185.000
5.01500 174.000
5.06000 164.000
5.10500 175.000
5.15000 189.000
5.19500 180.000
5.24000 182.000
5.28500 186.000
5.33000 155.000
5.37500 203.000
5.42000 195.000
5.46500 198.000
5.51000 191.000
5.55500 171.000
5.60000 171.000
5.64500 179.000
5.69000 191.000
5.73500 195.000
5.78000 175.000
5.82500 188.000
5.87000 178.000
5.91500 182.000
5.96000 203.000
6.00500 189.000
6.05000 195.000
6.09500 166.000
6.14000 183.000
6.18500 182.000
6.23000 176.000
6.27500 182.000
6.32000 172.000
6.36500 182.000
6.41000 175.000
6.45500 184.000
6.50000 176.000
6.54500 165.000
6.59000 190.000
6.63500 175.000
6.68000 170.000
6.72500 179.000
6.77000 176.000
6.81500 168.000
6.86000 161.000
6.90500 186.000
6.95000 174.000
6.99500 180.000
7.04000 182.000
7.08500 165.000
7.13000 172.000
7.17500 172.000
7.22000 175.000
7.26500 171.000
7.31000 176.000
7.35500 175.000
7.40000 184.000
7.44500 156.000
7.49000 182.000
7.53500 160.000
7.58000 173.000
7.62500 157.000
7.67000 187.000
7.71500 169.000
7.76000 185.000
7.80500 174.000
7.85000 194.000
7.89500 181.000
7.94000 163.000
7.98500 184.000
8.03000 157.000
8.07500 175.000
8.12000 174.000
8.16500 171.000
8.21000 209.000
8.25500 169.000
8.30000 161.000
8.34500 185.000
8.39000 158.000
8.43500 188.000
8.48000 165.000
8.52500 142.000
8.57000 168.000
8.61500 154.000
8.66000 175.000
8.70500 189.000
8.75000 190.000
8.79500 174.000
8.84000 164.000
8.88500 174.000
8.93000 159.000
8.97500 178.000
9.02000 158.000
9.06500 185.000
9.11000 164.000
9.15500 182.000
9.20000 183.000
9.24500 188.000
9.29000 184.000
9.33500 176.000
9.38000 184.000
9.42500 169.000
9.47000 176.000
9.51500 158.000
9.56000 159.000
9.60500 186.000
9.65000 170.000
9.69500 181.000
9.74000 171.000
9.78500 167.000
9.83000 180.000
9.87500 175.000
9.92000 175.000
9.96500 174.000
10.01000 179.000
10.05500 188.000
10.10000 157.000
10.14500 155.000
10.19000 189.000
10.23500 163.000
10.28000 158.000
10.32500 193.000
10.37000 172.000
10.41500 168.000
10.46000 176.000
10.50500 167.000
10.55000 161.000
10.59500 157.000
10.64000 179.000
10.68500 182.000
10.73000 180.000
10.77500 181.000
10.82000 168.000
10.86500 193.000
10.91000 167.000
10.95500 175.000
11.00000 161.000
11.04500 184.000
11.09000 187.000
11.13500 177.000
11.18000 190.000
11.22500 176.000
11.27000 176.000
11.31500 187.000
11.36000 158.000
11.40500 188.000
11.45000 160.000
11.49500 180.000
11.54000 169.000
11.58500 197.000
11.63000 173.000
11.67500 186.000
11.72000 189.000
11.76500 223.000
11.81000 242.000
11.85500 338.000
11.90000 469.000
11.94500 840.000
11.99000 1390.000
12.03500 1151.000
12.08000 968.000
12.12500 697.000
12.17000 347.000
12.21500 274.000
12.26000 226.000
12.30500 226.000
12.35000 224.000
12.39500 214.000
12.44000 247.000
12.48500 211.000
12.53000 211.000
12.57500 204.000
12.62000 201.000
12.66500 204.000
12.71000 204.000
12.75500 208.000
12.80000 212.000
12.84500 178.000
12.89000 195.000
12.93500 193.000
12.98000 173.000
13.02500 195.000
13.07000 197.000
13.11500 187.000
13.16000 183.000
13.20500 193.000
13.25000 174.000
13.29500 198.000
13.34000 188.000
13.38500 183.000
13.43000 177.000
13.47500 211.000
13.52000 179.000
13.56500 180.000
13.61000 185.000
13.65500 200.000
13.70000 191.000
13.74500 173.000
13.79000 194.000
13.83500 194.000
13.88000 207.000
13.92500 171.000
13.97000 196.000
14.01500 181.000
14.06000 180.000
14.10500 184.000
14.15000 205.000
14.19500 172.000
14.24000 185.000
14.28500 187.000
14.33000 203.000
14.37500 169.000
14.42000 174.000
14.46500 171.000
14.51000 192.000
14.55500 178.000
14.60000 202.000
14.64500 184.000
14.69000 203.000
14.73500 168.000
14.78000 204.000
14.82500 197.000
14.87000 181.000
14.91500 181.000
14.96000 187.000
15.00500 178.000
15.05000 181.000
15.09500 203.000
15.14000 177.000
15.18500 194.000
15.23000 206.000
15.27500 199.000
15.32000 195.000
15.36500 195.000
15.41000 200.000
15.45500 197.000
15.50000 193.000
15.54500 208.000
15.59000 203.000
15.63500 195.000
15.68000 186.000
15.72500 215.000
15.77000 175.000
15.81500 206.000
15.86000 179.000
15.90500 204.000
15.95000 204.000
15.99500 192.000
16.04000 183.000
16.08500 183.000
16.13000 202.000
16.17500 198.000
16.22000 210.000
16.26500 196.000
16.31000 194.000
16.35500 198.000
16.40000 208.000
16.44500 191.000
16.49000 194.000
16.53500 197.000
16.58000 192.000
16.62500 202.000
16.67000 178.000
16.71500 213.000
16.76000 196.000
16.80500 214.000
16.85000 193.000
16.89500 210.000
16.94000 219.000
16.98500 183.000
17.03000 230.000
17.07500 213.000
17.12000 216.000
17.16500 216.000
17.21000 209.000
17.25500 213.000
17.30000 221.000
17.34500 225.000
17.39000 216.000
17.43500 234.000
17.48000 208.000
17.52500 224.000
17.57000 220.000
17.61500 214.000
17.66000 247.000
17.70500 265.000
17.75000 248.000
17.79500 272.000
17.84000 288.000
17.88500 297.000
17.93000 332.000
17.97500 342.000
18.02000 340.000
18.06500 336.000
18.11000 320.000
18.15500 273.000
18.20000 275.000
18.24500 252.000
18.29000 270.000
18.33500 262.000
18.38000 260.000
18.42500 238.000
18.47000 245.000
18.51500 246.000
18.56000 245.000
18.60500 215.000
18.65000 216.000
18.69500 226.000
18.74000 214.000
18.78500 237.000
18.83000 229.000
18.87500 240.000
18.92000 226.000
18.96500 236.000
19.01000 248.000
19.05500 214.000
19.10000 218.000
19.14500 239.000
19.19000 209.000
19.23500 224.000
19.28000 238.000
19.32500 203.000
19.37000 215.000
19.41500 202.000
19.46000 233.000
19.50500 248.000
19.55000 232.000
19.59500 245.000
19.64000 225.000
19.68500 226.000
19.73000 232.000
19.77500 218.000
19.82000 220.000
19.86500 247.000
19.91000 250.000
19.95500 246.000
20.00000 226.000
20.04500 234.000
20.09000 246.000
20.13500 242.000
20.18000 215.000
20.22500 240.000
20.27000 246.000
20.31500 240.000
20.36000 241.000
20.40500 262.000
20.45000 251.000
20.49500 249.000
20.54000 260.000
20.58500 271.000
20.63000 268.000
20.67500 312.000
20.72000 376.000
20.76500 507.000
20.81000 530.000
20.85500 486.000
20.90000 478.000
20.94500 459.000
20.99000 377.000
21.03500 334.000
21.08000 292.000
21.12500 288.000
21.17000 286.000
21.21500 284.000
21.26000 258.000
21.30500 279.000
21.35000 263.000
21.39500 235.000
21.44000 260.000
21.48500 264.000
21.53000 274.000
21.57500 259.000
21.62000 250.000
21.66500 257.000
21.71000 274.000
21.75500 278.000
21.80000 261.000
21.84500 289.000
21.89000 249.000
21.93500 280.000
21.98000 292.000
22.02500 266.000
22.07000 265.000
22.11500 260.000
22.16000 263.000
22.20500 252.000
22.25000 275.000
22.29500 268.000
22.34000 259.000
22.38500 265.000
22.43000 256.000
22.47500 298.000
22.52000 279.000
22.56500 276.000
22.61000 271.000
22.65500 296.000
22.70000 275.000
22.74500 278.000
22.79000 282.000
22.83500 276.000
22.88000 270.000
22.92500 275.000
22.97000 274.000
23.01500 283.000
23.06000 287.000
23.10500 275.000
23.15000 270.000
23.19500 258.000
23.24000 298.000
23.28500 303.000
23.33000 292.000
23.37500 297.000
23.42000 287.000
23.46500 301.000
23.51000 269.000
23.55500 286.000
23.60000 280.000
23.64500 280.000
23.69000 297.000
23.73500 284.000
23.78000 294.000
23.82500 282.000
23.87000 300.000
23.91500 288.000
23.96000 288.000
24.00500 275.000
24.05000 281.000
24.09500 346.000
24.14000 389.000
24.18500 355.000
24.23000 356.000
24.27500 405.000
24.32000 391.000
24.36500 369.000
24.41000 345.000
24.45500 355.000
24.50000 329.000
24.54500 355.000
24.59000 331.000
24.63500 392.000
24.68000 405.000
24.72500 409.000
24.77000 427.000
24.81500 445.000
24.86000 461.000
24.90500 487.000
24.95000 511.000
24.99500 483.000
25.04000 459.000
25.08500 455.000
25.13000 421.000
25.17500 357.000
25.22000 355.000
25.26500 387.000
25.31000 354.000
25.35500 334.000
25.40000 307.000
25.44500 320.000
25.49000 328.000
25.53500 344.000
25.58000 308.000
25.62500 323.000
25.67000 288.000
25.71500 317.000
25.76000 309.000
25.80500 324.000
25.85000 306.000
25.89500 332.000
25.94000 330.000
25.98500 330.000
26.03000 355.000
26.07500 338.000
26.12000 306.000
26.16500 350.000
26.21000 350.000
26.25500 339.000
26.30000 319.000
26.34500 314.000
26.39000 370.000
26.43500 353.000
26.48000 372.000
26.52500 371.000
26.57000 402.000
26.61500 423.000
26.66000 422.000
26.70500 486.000
26.75000 478.000
26.79500 534.000
26.84000 557.000
26.88500 701.000
26.93000 778.000
26.97500 839.000
27.02000 887.000
27.06500 922.000
27.11000 900.000
27.15500 756.000
27.20000 712.000
27.24500 677.000
27.29000 657.000
27.33500 652.000
27.38000 625.000
27.42500 665.000
27.47000 708.000
27.51500 731.000
27.56000 843.000
27.60500 875.000
27.65000 995.000
27.69500 1002.000
27.74000 977.000
27.78500 938.000
27.83000 773.000
27.87500 743.000
27.92000 659.000
27.96500 581.000
28.01000 549.000
28.05500 524.000
28.10000 483.000
28.14500 439.000
28.19000 404.000
28.23500 396.000
28.28000 387.000
28.32500 380.000
28.37000 378.000
28.41500 360.000
28.46000 353.000
28.50500 320.000
28.55000 327.000
28.59500 320.000
28.64000 324.000
28.68500 312.000
28.73000 313.000
28.77500 327.000
28.82000 300.000
28.86500 316.000
28.91000 313.000
28.95500 303.000
29.00000 290.000
29.04500 318.000
29.09000 311.000
29.13500 326.000
29.18000 308.000
29.22500 307.000
29.27000 304.000
29.31500 341.000
29.36000 321.000
29.40500 327.000
29.45000 380.000
29.49500 388.000
29.54000 389.000
29.58500 402.000
29.63000 402.000
29.67500 443.000
29.72000 398.000
29.76500 377.000
29.81000 353.000
29.85500 358.000
29.90000 329.000
29.94500 314.000
29.99000 301.000
30.03500 306.000
30.08000 282.000
30.12500 277.000
30.17000 225.000
30.21500 232.000
30.26000 236.000
30.30500 251.000
30.35000 224.000
30.39500 214.000
30.44000 252.000
30.48500 247.000
30.53000 239.000
30.57500 233.000
30.62000 218.000
30.66500 218.000
30.71000 211.000
30.75500 219.000
30.80000 223.000
30.84500 216.000
30.89000 236.000
30.93500 218.000
30.98000 223.000
31.02500 205.000
31.07000 209.000
31.11500 218.000
31.16000 225.000
31.20500 203.000
31.25000 211.000
31.29500 205.000
31.34000 213.000
31.38500 188.000
31.43000 213.000
31.47500 206.000
31.52000 218.000
31.56500 220.000
31.61000 184.000
31.65500 219.000
31.70000 189.000
31.74500 227.000
31.79000 199.000
31.83500 221.000
31.88000 224.000
31.92500 240.000
31.97000 306.000
32.01500 314.000
32.06000 312.000
32.10500 346.000
32.15000 354.000
32.19500 352.000
32.24000 361.000
32.28500 293.000
32.33000 282.000
32.37500 271.000
32.42000 230.000
32.46500 199.000
32.51000 195.000
32.55500 203.000
32.60000 213.000
32.64500 219.000
32.69000 201.000
32.73500 198.000
32.78000 196.000
32.82500 191.000
32.87000 182.000
32.91500 198.000
32.96000 187.000
33.00500 204.000
33.05000 190.000
33.09500 158.000
33.14000 179.000
33.18500 183.000
33.23000 184.000
33.27500 193.000
33.32000 171.000
33.36500 180.000
33.41000 201.000
33.45500 176.000
33.50000 194.000
33.54500 187.000
33.59000 177.000
33.63500 176.000
33.68000 197.000
33.72500 173.000
33.77000 181.000
33.81500 178.000
33.86000 173.000
33.90500 155.000
33.95000 196.000
33.99500 168.000
34.04000 166.000
34.08500 163.000
34.13000 196.000
34.17500 172.000
34.22000 167.000
34.26500 185.000
34.31000 174.000
34.35500 188.000
34.40000 187.000
34.44500 194.000
34.49000 166.000
34.53500 173.000
34.58000 168.000
34.62500 213.000
34.67000 169.000
34.71500 201.000
34.76000 197.000
34.80500 189.000
34.85000 186.000
34.89500 183.000
34.94000 205.000
34.98500 225.000
35.03000 204.000
35.07500 210.000
35.12000 183.000
35.16500 200.000
35.21000 194.000
35.25500 175.000
35.30000 185.000
35.34500 159.000
35.39000 154.000
35.43500 162.000
35.48000 165.000
35.52500 144.000
35.57000 168.000
35.61500 155.000
35.66000 162.000
35.70500 144.000
35.75000 156.000
35.79500 148.000
35.84000 179.000
35.88500 165.000
35.93000 150.000
35.97500 159.000
36.02000 154.000
36.06500 137.000
36.11000 147.000
36.15500 133.000
36.20000 155.000
36.24500 134.000
36.29000 165.000
36.33500 151.000
36.38000 164.000
36.42500 147.000
36.47000 156.000
36.51500 146.000
36.56000 147.000
36.60500 155.000
36.65000 141.000
36.69500 136.000
36.74000 145.000
36.78500 158.000
36.83000 140.000
36.87500 141.000
36.92000 141.000
36.96500 133.000
37.01000 131.000
37.05500 137.000
37.10000 122.000
37.14500 138.000
37.19000 139.000
37.23500 130.000
37.28000 137.000
37.32500 137.000
37.37000 137.000
37.41500 127.000
37.46000 132.000
37.50500 146.000
37.55000 132.000
37.59500 145.000
37.64000 124.000
37.68500 129.000
37.73000 139.000
37.77500 145.000
37.82000 115.000
37.86500 131.000
37.91000 124.000
37.95500 118.000
38.00000 133.000
38.04500 121.000
38.09000 136.000
38.13500 127.000
38.18000 130.000
38.22500 143.000
38.27000 130.000
38.31500 122.000
38.36000 117.000
38.40500 131.000
38.45000 127.000
38.49500 145.000
38.54000 128.000
38.58500 150.000
38.63000 120.000
38.67500 119.000
38.72000 138.000
38.76500 127.000
38.81000 114.000
38.85500 129.000
38.90000 120.000
38.94500 136.000
38.99000 126.000
39.03500 121.000
39.08000 141.000
39.12500 129.000
39.17000 137.000
39.21500 113.000
39.26000 129.000
39.30500 138.000
39.35000 137.000
39.39500 158.000
39.44000 138.000
39.48500 149.000
39.53000 156.000
39.57500 135.000
39.62000 164.000
39.66500 158.000
39.71000 144.000
39.75500 181.000
39.80000 150.000
39.84500 176.000
39.89000 166.000
39.93500 137.000
39.98000 139.000
40.02500 151.000
40.07000 130.000
40.11500 135.000
40.16000 118.000
40.20500 113.000
40.25000 128.000
40.29500 120.000
40.34000 120.000
40.38500 105.000
40.43000 129.000
40.47500 123.000
40.52000 137.000
40.56500 126.000
40.61000 123.000
40.65500 119.000
40.70000 127.000
40.74500 130.000
40.79000 131.000
40.83500 120.000
40.88000 123.000
40.92500 129.000
40.97000 128.000
41.01500 122.000
41.06000 124.000
41.10500 121.000
41.15000 136.000
41.19500 115.000
41.24000 135.000
41.28500 130.000
41.33000 122.000
41.37500 126.000
41.42000 127.000
41.46500 135.000
41.51000 135.000
41.55500 133.000
41.60000 112.000
41.64500 139.000
41.69000 127.000
41.73500 124.000
41.78000 128.000
41.82500 122.000
41.87000 129.000
41.91500 135.000
41.96000 122.000
42.00500 128.000
42.05000 130.000
42.09500 125.000
42.14000 139.000
42.18500 139.000
42.23000 166.000
42.27500 177.000
42.32000 163.000
42.36500 173.000
42.41000 159.000
42.45500 161.000
42.50000 148.000
42.54500 174.000
42.59000 180.000
42.63500 179.000
42.68000 190.000
42.72500 168.000
42.77000 166.000
42.81500 150.000
42.86000 133.000
42.90500 138.000
42.95000 146.000
42.99500 118.000
43.04000 138.000
43.08500 144.000
43.13000 130.000
43.17500 129.000
43.22000 137.000
43.26500 139.000
43.31000 118.000
43.35500 125.000
43.40000 137.000
43.44500 114.000
43.49000 119.000
43.53500 135.000
43.58000 131.000
43.62500 145.000
43.67000 139.000
43.71500 127.000
43.76000 127.000
43.80500 135.000
43.85000 141.000
43.89500 148.000
43.94000 140.000
43.98500 135.000
44.03000 149.000
44.07500 148.000
44.12000 137.000
44.16500 154.000
44.21000 148.000
44.25500 183.000
44.30000 190.000
44.34500 234.000
44.39000 233.000
44.43500 218.000
44.48000 201.000
44.52500 192.000
44.57000 232.000
44.61500 222.000
44.66000 230.000
44.70500 226.000
44.75000 231.000
44.79500 209.000
44.84000 259.000
44.88500 242.000
44.93000 218.000
44.97500 229.000
45.02000 211.000
45.06500 194.000
45.11000 184.000
45.15500 163.000
45.20000 172.000
45.24500 142.000
45.29000 159.000
45.33500 142.000
45.38000 138.000
45.42500 116.000
45.47000 125.000
45.51500 134.000
45.56000 129.000
45.60500 132.000
45.65000 136.000
45.69500 140.000
45.74000 122.000
45.78500 114.000
45.83000 130.000
45.87500 114.000
45.92000 116.000
45.96500 120.000
46.01000 130.000
46.05500 120.000
46.10000 106.000
46.14500 120.000
46.19000 123.000
46.23500 137.000
46.28000 122.000
46.32500 129.000
46.37000 137.000
46.41500 142.000
46.46000 127.000
46.50500 135.000
46.55000 126.000
46.59500 123.000
46.64000 131.000
46.68500 138.000
46.73000 132.000
46.77500 123.000
46.82000 140.000
46.86500 115.000
46.91000 106.000
46.95500 142.000
47.00000 130.000
47.04500 115.000
47.09000 112.000
47.13500 122.000
47.18000 105.000
47.22500 111.000
47.27000 110.000
47.31500 106.000
47.36000 95.000
47.40500 121.000
47.45000 103.000
47.49500 120.000
47.54000 113.000
47.58500 113.000
47.63000 118.000
47.67500 113.000
47.72000 121.000
47.76500 104.000
47.81000 103.000
47.85500 90.000
47.90000 112.000
47.94500 99.000
47.99000 113.000
48.03500 112.000
48.08000 101.000
48.12500 128.000
48.17000 113.000
48.21500 99.000
48.26000 120.000
48.30500 101.000
48.35000 106.000
48.39500 102.000
48.44000 104.000
48.48500 97.000
48.53000 105.000
48.57500 118.000
48.62000 101.000
48.66500 120.000
48.71000 105.000
48.75500 101.000
48.80000 110.000
48.84500 98.000
48.89000 96.000
48.93500 107.000
48.98000 97.000
49.02500 106.000
49.07000 95.000
49.11500 118.000
49.16000 99.000
49.20500 104.000
49.25000 121.000
49.29500 118.000
49.34000 108.000
49.38500 121.000
49.43000 121.000
49.47500 105.000
49.52000 109.000
49.56500 95.000
49.61000 110.000
49.65500 122.000
49.70000 106.000
49.74500 94.000
49.79000 106.000
49.83500 114.000
49.88000 98.000
49.92500 112.000
49.97000 97.000
50.01500 108.000
50.06000 120.000
50.10500 110.000
50.15000 99.000
50.19500 114.000
50.24000 122.000
50.28500 94.000
50.33000 104.000
50.37500 109.000
50.42000 112.000
50.46500 114.000
50.51000 114.000
50.55500 118.000
50.60000 112.000
50.64500 108.000
50.69000 88.000
50.73500 102.000
50.78000 99.000
50.82500 122.000
50.87000 110.000
50.91500 109.000
50.96000 110.000
51.00500 116.000
51.05000 114.000
51.09500 120.000
51.14000 101.000
51.18500 98.000
51.23000 107.000
51.27500 105.000
51.32000 108.000
51.36500 120.000
51.41000 112.000
51.45500 101.000
51.50000 106.000
51.54500 119.000
51.59000 111.000
51.63500 89.000
51.68000 89.000
51.72500 98.000
51.77000 105.000
51.81500 91.000
51.86000 105.000
51.90500 103.000
51.95000 105.000
51.99500 96.000
52.04000 104.000
52.08500 103.000
52.13000 90.000
52.17500 114.000
52.22000 116.000
52.26500 95.000
52.31000 99.000
52.35500 128.000
52.40000 95.000
52.44500 102.000
52.49000 115.000
52.53500 103.000
52.58000 88.000
52.62500 104.000
52.67000 105.000
52.71500 101.000
52.76000 116.000
52.80500 99.000
52.85000 93.000
52.89500 108.000
52.94000 107.000
52.98500 106.000
53.03000 96.000
53.07500 102.000
53.12000 97.000
53.16500 97.000
53.21000 94.000
53.25500 104.000
53.30000 89.000
53.34500 96.000
53.39000 98.000
53.43500 91.000
53.48000 101.000
53.52500 94.000
53.57000 90.000
53.61500 81.000
53.66000 113.000
53.70500 96.000
53.75000 110.000
53.79500 100.000
53.84000 101.000
53.88500 105.000
53.93000 103.000
53.97500 102.000
54.02000 111.000
54.06500 114.000
54.11000 106.000
54.15500 115.000
54.20000 108.000
54.24500 95.000
54.29000 105.000
54.33500 104.000
54.38000 101.000
54.42500 97.000
54.47000 99.000
54.51500 103.000
54.56000 108.000
54.60500 101.000
54.65000 98.000
54.69500 97.000
54.74000 102.000
54.78500 111.000
54.83000 112.000
54.87500 100.000
54.92000 113.000
54.96500 86.000
55.01000 98.000
55.05500 100.000
55.10000 86.000
55.14500 116.000
55.19000 108.000
55.23500 134.000
55.28000 105.000
55.32500 91.000
55.37000 112.000
55.41500 99.000
55.46000 105.000
55.50500 108.000
55.55000 106.000
55.59500 129.000
55.64000 115.000
55.68500 101.000
55.73000 120.000
55.77500 111.000
55.82000 118.000
55.86500 107.000
55.91000 112.000
55.95500 130.000
56.00000 131.000
56.04500 140.000
56.09000 155.000
56.13500 151.000
56.18000 137.000
56.22500 137.000
56.27000 132.000
56.31500 135.000
56.36000 133.000
56.40500 141.000
56.45000 127.000
56.49500 141.000
56.54000 125.000
56.58500 124.000
56.63000 129.000
56.67500 124.000
56.72000 99.000
56.76500 116.000
56.81000 109.000
56.85500 108.000
56.90000 103.000
56.94500 118.000
56.99000 112.000
57.03500 119.000
57.08000 119.000
57.12500 97.000
57.17000 108.000
57.21500 121.000
57.26000 107.000
57.30500 113.000
57.35000 115.000
57.39500 119.000
57.44000 119.000
57.48500 110.000
57.53000 99.000
57.57500 116.000
57.62000 114.000
57.66500 106.000
57.71000 109.000
57.75500 113.000
57.80000 95.000
57.84500 102.000
57.89000 100.000
57.93500 113.000
57.98000 101.000
58.02500 103.000
58.07000 91.000
58.11500 111.000
58.16000 78.000
58.20500 105.000
58.25000 106.000
58.29500 89.000
58.34000 100.000
58.38500 94.000
58.43000 94.000
58.47500 97.000
58.52000 92.000
58.56500 95.000
58.61000 96.000
58.65500 100.000
58.70000 87.000
58.74500 78.000
58.79000 82.000
58.83500 96.000
58.88000 89.000
58.92500 109.000
58.97000 93.000
59.01500 102.000
59.06000 85.000
59.10500 96.000
59.15000 91.000
59.19500 97.000
59.24000 98.000
59.28500 93.000
59.33000 102.000
59.37500 100.000
59.42000 91.000
59.46500 84.000
59.51000 94.000
59.55500 92.000
59.60000 96.000
59.64500 93.000
59.69000 85.000
59.73500 86.000
59.78000 89.000
59.82500 96.000
59.87000 85.000
59.91500 106.000
59.96000 102.000
60.00500 95.000
60.05000 79.000
60.09500 88.000
60.14000 96.000
60.18500 108.000
60.23000 88.000
60.27500 87.000
60.32000 81.000
60.36500 98.000
60.41000 85.000
60.45500 88.000
60.50000 79.000
60.54500 88.000
60.59000 85.000
60.63500 94.000
60.68000 94.000
60.72500 95.000
60.77000 88.000
60.81500 80.000
60.86000 100.000
60.90500 102.000
60.95000 92.000
60.99500 88.000
61.04000 87.000
61.08500 104.000
61.13000 99.000
61.17500 91.000
61.22000 72.000
61.26500 99.000
61.31000 95.000
61.35500 109.000
61.40000 84.000
61.44500 90.000
61.49000 90.000
61.53500 92.000
61.58000 92.000
61.62500 74.000
61.67000 100.000
61.71500 91.000
61.76000 93.000
61.80500 89.000
61.85000 91.000
61.89500 90.000
61.94000 101.000
61.98500 97.000