File: ISoD/xrd_data/HSC005_ranges_combined.xy
2.0 627.0
2.045 626.0
2.09 551.0
2.135 544.0
2.18 537.0
2.225 515.0
2.27 479.0
2.315 443.0
2.36 440.0
2.405 391.0
2.45 412.0
2.495 412.0
2.54 437.0
2.585 361.0
2.63 376.0
2.675 365.0
2.72 361.0
2.765 378.0
2.81 375.0
2.855 368.0
2.9 336.0
2.945 373.0
2.99 329.0
3.035 359.0
3.08 322.0
3.125 297.0
3.17 321.0
3.215 319.0
3.26 310.0
3.305 326.0
3.35 334.0
3.395 332.0
3.44 328.0
3.485 311.0
3.53 290.0
3.575 305.0
3.62 318.0
3.665 303.0
3.71 318.0
3.755 340.0
3.8 282.0
3.845 342.0
3.89 326.0
3.935 318.0
3.98 314.0
4.025 347.0
4.07 320.0
4.115 302.0
4.16 307.0
4.205 290.0
4.25 329.0
4.295 321.0
4.34 302.0
4.385 306.0
4.43 280.0
4.475 317.0
4.52 303.0
4.565 305.0
4.61 308.0
4.655 303.0
4.7 309.0
4.745 309.0
4.79 320.0
4.835 295.0
4.88 302.0
4.925 322.0
4.97 312.0
5.015 315.0
5.06 320.0
5.105 317.0
5.15 326.0
5.195 326.0
5.24 355.0
5.285 310.0
5.33 317.0
5.375 284.0
5.42 290.0
5.465 301.0
5.51 336.0
5.555 321.0
5.6 315.0
5.645 325.0
5.69 327.0
5.735 317.0
5.78 362.0
5.825 334.0
5.87 316.0
5.915 334.0
5.96 348.0
6.005 309.0
6.05 363.0
6.095 341.0
6.14 331.0
6.185 347.0
6.23 367.0
6.275 347.0
6.32 343.0
6.365 332.0
6.41 347.0
6.455 365.0
6.5 324.0
6.545 354.0
6.59 313.0
6.635 309.0
6.68 328.0
6.725 334.0
6.77 316.0
6.815 306.0
6.86 354.0
6.905 339.0
6.95 327.0
6.995 327.0
7.04 318.0
7.085 336.0
7.13 318.0
7.175 320.0
7.22 335.0
7.265 332.0
7.31 329.0
7.355 358.0
7.4 341.0
7.445 347.0
7.49 338.0
7.535 323.0
7.58 323.0
7.625 297.0
7.67 301.0
7.715 314.0
7.76 330.0
7.805 328.0
7.85 314.0
7.895 296.0
7.94 315.0
7.985 321.0
8.03 324.0
8.075 333.0
8.12 304.0
8.165 340.0
8.21 317.0
8.255 321.0
8.3 311.0
8.345 326.0
8.39 359.0
8.435 340.0
8.48 332.0
8.525 343.0
8.57 355.0
8.615 330.0
8.66 333.0
8.705 311.0
8.75 330.0
8.795 332.0
8.84 300.0
8.885 334.0
8.93 300.0
8.975 356.0
9.02 318.0
9.065 328.0
9.11 324.0
9.155 337.0
9.2 329.0
9.245 338.0
9.29 340.0
9.335 341.0
9.38 319.0
9.425 348.0
9.47 325.0
9.515 340.0
9.56 342.0
9.605 320.0
9.65 336.0
9.695 353.0
9.74 351.0
9.785 324.0
9.83 353.0
9.875 350.0
9.92 341.0
9.965 350.0
10.01 333.0
10.055 343.0
10.1 336.0
10.145 316.0
10.19 374.0
10.235 363.0
10.28 370.0
10.325 329.0
10.37 356.0
10.415 336.0
10.46 350.0
10.505 352.0
10.55 340.0
10.595 353.0
10.64 358.0
10.685 360.0
10.73 386.0
10.775 345.0
10.82 360.0
10.865 362.0
10.91 349.0
10.955 383.0
11.0 339.0
11.045 353.0
11.09 328.0
11.135 336.0
11.18 331.0
11.225 318.0
11.27 317.0
11.315 362.0
11.36 315.0
11.405 333.0
11.45 306.0
11.495 332.0
11.54 339.0
11.585 350.0
11.63 309.0
11.675 322.0
11.72 350.0
11.765 318.0
11.81 364.0
11.855 373.0
11.9 446.0
11.945 543.0
11.99 764.0
12.035 1331.0
12.08 969.0
12.125 450.0
12.17 396.0
12.215 341.0
12.26 391.0
12.305 406.0
12.35 372.0
12.395 348.0
12.44 335.0
12.485 359.0
12.53 336.0
12.575 317.0
12.62 335.0
12.665 364.0
12.71 340.0
12.755 322.0
12.8 358.0
12.845 315.0
12.89 353.0
12.935 343.0
12.98 297.0
13.025 360.0
13.07 337.0
13.115 324.0
13.16 335.0
13.205 367.0
13.25 315.0
13.295 335.0
13.34 347.0
13.385 349.0
13.43 325.0
13.475 341.0
13.52 316.0
13.565 344.0
13.61 328.0
13.655 356.0
13.7 329.0
13.745 334.0
13.79 344.0
13.835 367.0
13.88 369.0
13.925 326.0
13.97 325.0
14.015 325.0
14.06 365.0
14.105 327.0
14.15 342.0
14.195 355.0
14.24 336.0
14.285 330.0
14.33 300.0
14.375 324.0
14.42 337.0
14.465 338.0
14.51 363.0
14.555 334.0
14.6 336.0
14.645 352.0
14.69 355.0
14.735 346.0
14.78 339.0
14.825 333.0
14.87 345.0
14.915 334.0
14.96 365.0
15.005 348.0
15.05 328.0
15.095 343.0
15.14 335.0
15.185 345.0
15.23 330.0
15.275 336.0
15.32 348.0
15.365 341.0
15.41 343.0
15.455 333.0
15.5 341.0
15.545 349.0
15.59 348.0
15.635 335.0
15.68 349.0
15.725 343.0
15.77 358.0
15.815 356.0
15.86 361.0
15.905 362.0
15.95 356.0
15.995 371.0
16.04 336.0
16.085 335.0
16.13 349.0
16.175 344.0
16.22 347.0
16.265 374.0
16.31 346.0
16.355 361.0
16.4 366.0
16.445 364.0
16.49 365.0
16.535 382.0
16.58 347.0
16.625 359.0
16.67 370.0
16.715 398.0
16.76 389.0
16.805 367.0
16.85 354.0
16.895 347.0
16.94 354.0
16.985 345.0
17.03 351.0
17.075 362.0
17.12 357.0
17.165 377.0
17.21 365.0
17.255 372.0
17.3 377.0
17.345 351.0
17.39 366.0
17.435 379.0
17.48 358.0
17.525 370.0
17.57 377.0
17.615 379.0
17.66 373.0
17.705 406.0
17.75 392.0
17.795 373.0
17.84 406.0
17.885 394.0
17.93 405.0
17.975 401.0
18.02 386.0
18.065 383.0
18.11 398.0
18.155 388.0
18.2 413.0
18.245 402.0
18.29 400.0
18.335 408.0
18.38 409.0
18.425 380.0
18.47 399.0
18.515 388.0
18.56 385.0
18.605 369.0
18.65 388.0
18.695 443.0
18.74 408.0
18.785 419.0
18.83 420.0
18.875 435.0
18.92 410.0
18.965 404.0
19.01 433.0
19.055 449.0
19.1 422.0
19.145 402.0
19.19 438.0
19.235 424.0
19.28 398.0
19.325 416.0
19.37 426.0
19.415 406.0
19.46 385.0
19.505 427.0
19.55 416.0
19.595 392.0
19.64 401.0
19.685 398.0
19.73 432.0
19.775 421.0
19.82 410.0
19.865 391.0
19.91 430.0
19.955 437.0
20.0 436.0
20.045 427.0
20.09 424.0
20.135 422.0
20.18 414.0
20.225 413.0
20.27 419.0
20.315 413.0
20.36 427.0
20.405 424.0
20.45 408.0
20.495 470.0
20.54 433.0
20.585 454.0
20.63 434.0
20.675 511.0
20.72 501.0
20.765 642.0
20.81 937.0
20.855 1854.0
20.9 4593.0
20.945 7784.0
20.99 2942.0
21.035 874.0
21.08 576.0
21.125 516.0
21.17 474.0
21.215 461.0
21.26 447.0
21.305 457.0
21.35 465.0
21.395 468.0
21.44 486.0
21.485 488.0
21.53 458.0
21.575 480.0
21.62 466.0
21.665 470.0
21.71 462.0
21.755 466.0
21.8 473.0
21.845 491.0
21.89 482.0
21.935 483.0
21.98 475.0
22.025 457.0
22.07 478.0
22.115 476.0
22.16 462.0
22.205 468.0
22.25 448.0
22.295 469.0
22.34 458.0
22.385 456.0
22.43 487.0
22.475 470.0
22.52 467.0
22.565 481.0
22.61 463.0
22.655 492.0
22.7 472.0
22.745 480.0
22.79 463.0
22.835 496.0
22.88 472.0
22.925 478.0
22.97 466.0
23.015 482.0
23.06 489.0
23.105 459.0
23.15 505.0
23.195 465.0
23.24 497.0
23.285 493.0
23.33 476.0
23.375 496.0
23.42 487.0
23.465 471.0
23.51 493.0
23.555 491.0
23.6 509.0
23.645 514.0
23.69 486.0
23.735 501.0
23.78 468.0
23.825 461.0
23.87 463.0
23.915 508.0
23.96 504.0
24.005 523.0
24.05 600.0
24.095 801.0
24.14 1246.0
24.185 2868.0
24.23 4486.0
24.275 2015.0
24.32 831.0
24.365 746.0
24.41 817.0
24.455 833.0
24.5 781.0
24.545 704.0
24.59 621.0
24.635 610.0
24.68 604.0
24.725 557.0
24.77 560.0
24.815 551.0
24.86 579.0
24.905 593.0
24.95 588.0
24.995 669.0
25.04 831.0
25.085 1100.0
25.13 1632.0
25.175 2092.0
25.22 1814.0
25.265 1236.0
25.31 920.0
25.355 740.0
25.4 700.0
25.445 653.0
25.49 655.0
25.535 650.0
25.58 662.0
25.625 608.0
25.67 607.0
25.715 568.0
25.76 606.0
25.805 586.0
25.85 586.0
25.895 580.0
25.94 552.0
25.985 589.0
26.03 579.0
26.075 594.0
26.12 630.0
26.165 581.0
26.21 623.0
26.255 605.0
26.3 639.0
26.345 616.0
26.39 658.0
26.435 625.0
26.48 625.0
26.525 662.0
26.57 646.0
26.615 652.0
26.66 643.0
26.705 673.0
26.75 640.0
26.795 688.0
26.84 731.0
26.885 692.0
26.93 673.0
26.975 664.0
27.02 740.0
27.065 715.0
27.11 740.0
27.155 735.0
27.2 741.0
27.245 668.0
27.29 727.0
27.335 781.0
27.38 763.0
27.425 817.0
27.47 759.0
27.515 896.0
27.56 863.0
27.605 892.0
27.65 943.0
27.695 1057.0
27.74 1298.0
27.785 1594.0
27.83 2035.0
27.875 2815.0
27.92 3928.0
27.965 5128.0
28.01 5605.0
28.055 4613.0
28.1 3262.0
28.145 2172.0
28.19 1590.0
28.235 1269.0
28.28 1097.0
28.325 940.0
28.37 828.0
28.415 824.0
28.46 731.0
28.505 647.0
28.55 604.0
28.595 597.0
28.64 604.0
28.685 580.0
28.73 590.0
28.775 576.0
28.82 565.0
28.865 527.0
28.91 546.0
28.955 512.0
29.0 488.0
29.045 501.0
29.09 492.0
29.135 484.0
29.18 522.0
29.225 474.0
29.27 466.0
29.315 489.0
29.36 483.0
29.405 490.0
29.45 479.0
29.495 436.0
29.54 476.0
29.585 461.0
29.63 461.0
29.675 453.0
29.72 454.0
29.765 433.0
29.81 468.0
29.855 434.0
29.9 419.0
29.945 452.0
29.99 422.0
30.035 412.0
30.08 413.0
30.125 426.0
30.17 376.0
30.215 428.0
30.26 417.0
30.305 480.0
30.35 434.0
30.395 418.0
30.44 422.0
30.485 390.0
30.53 393.0
30.575 419.0
30.62 377.0
30.665 421.0
30.71 381.0
30.755 408.0
30.8 391.0
30.845 378.0
30.89 368.0
30.935 388.0
30.98 375.0
31.025 385.0
31.07 372.0
31.115 381.0
31.16 383.0
31.205 376.0
31.25 383.0
31.295 363.0
31.34 393.0
31.385 367.0
31.43 387.0
31.475 401.0
31.52 376.0
31.565 391.0
31.61 394.0
31.655 344.0
31.7 382.0
31.745 379.0
31.79 392.0
31.835 378.0
31.88 370.0
31.925 401.0
31.97 417.0
32.015 457.0
32.06 506.0
32.105 746.0
32.15 1595.0
32.195 3723.0
32.24 5052.0
32.285 2264.0
32.33 810.0
32.375 529.0
32.42 459.0
32.465 433.0
32.51 423.0
32.555 415.0
32.6 450.0
32.645 421.0
32.69 430.0
32.735 508.0
32.78 587.0
32.825 619.0
32.87 791.0
32.915 874.0
32.96 991.0
33.005 941.0
33.05 819.0
33.095 643.0
33.14 550.0
33.185 509.0
33.23 425.0
33.275 414.0
33.32 375.0
33.365 341.0
33.41 368.0
33.455 363.0
33.5 359.0
33.545 335.0
33.59 347.0
33.635 329.0
33.68 324.0
33.725 322.0
33.77 298.0
33.815 330.0
33.86 321.0
33.905 330.0
33.95 320.0
33.995 287.0
34.04 330.0
34.085 310.0
34.13 326.0
34.175 327.0
34.22 351.0
34.265 307.0
34.31 292.0
34.355 318.0
34.4 330.0
34.445 318.0
34.49 359.0
34.535 342.0
34.58 379.0
34.625 372.0
34.67 406.0
34.715 402.0
34.76 379.0
34.805 397.0
34.85 376.0
34.895 412.0
34.94 429.0
34.985 471.0
35.03 508.0
35.075 579.0
35.12 690.0
35.165 878.0
35.21 924.0
35.255 892.0
35.3 735.0
35.345 582.0
35.39 535.0
35.435 431.0
35.48 403.0
35.525 376.0
35.57 330.0
35.615 341.0
35.66 298.0
35.705 332.0
35.75 280.0
35.795 296.0
35.84 311.0
35.885 307.0
35.93 267.0
35.975 286.0
36.02 256.0
36.065 268.0
36.11 275.0
36.155 272.0
36.2 274.0
36.245 272.0
36.29 269.0
36.335 280.0
36.38 285.0
36.425 261.0
36.47 278.0
36.515 267.0
36.56 313.0
36.605 438.0
36.65 672.0
36.695 818.0
36.74 566.0
36.785 316.0
36.83 267.0
36.875 263.0
36.92 262.0
36.965 259.0
37.01 231.0
37.055 252.0
37.1 252.0
37.145 256.0
37.19 260.0
37.235 262.0
37.28 265.0
37.325 257.0
37.37 237.0
37.415 237.0
37.46 239.0
37.505 284.0
37.55 249.0
37.595 255.0
37.64 241.0
37.685 252.0
37.73 213.0
37.775 240.0
37.82 235.0
37.865 246.0
37.91 246.0
37.955 254.0
38.0 235.0
38.045 208.0
38.09 247.0
38.135 251.0
38.18 217.0
38.225 259.0
38.27 234.0
38.315 256.0
38.36 216.0
38.405 228.0
38.45 211.0
38.495 230.0
38.54 222.0
38.585 235.0
38.63 240.0
38.675 247.0
38.72 252.0
38.765 233.0
38.81 240.0
38.855 238.0
38.9 222.0
38.945 220.0
38.99 245.0
39.035 232.0
39.08 235.0
39.125 231.0
39.17 219.0
39.215 251.0
39.26 228.0
39.305 237.0
39.35 254.0
39.395 210.0
39.44 236.0
39.485 216.0
39.53 243.0
39.575 222.0
39.62 225.0
39.665 225.0
39.71 242.0
39.755 227.0
39.8 253.0
39.845 244.0
39.89 262.0
39.935 242.0
39.98 227.0
40.025 236.0
40.07 232.0
40.115 248.0
40.16 196.0
40.205 226.0
40.25 233.0
40.295 217.0
40.34 265.0
40.385 248.0
40.43 218.0
40.475 256.0
40.52 239.0
40.565 240.0
40.61 251.0
40.655 254.0
40.7 236.0
40.745 250.0
40.79 243.0
40.835 267.0
40.88 254.0
40.925 262.0
40.97 297.0
41.015 303.0
41.06 336.0
41.105 385.0
41.15 429.0
41.195 470.0
41.24 536.0
41.285 610.0
41.33 660.0
41.375 593.0
41.42 512.0
41.465 454.0
41.51 409.0
41.555 363.0
41.6 333.0
41.645 284.0
41.69 263.0
41.735 270.0
41.78 270.0
41.825 247.0
41.87 264.0
41.915 241.0
41.96 253.0
42.005 225.0
42.05 257.0
42.095 258.0
42.14 233.0
42.185 219.0
42.23 243.0
42.275 257.0
42.32 237.0
42.365 250.0
42.41 233.0
42.455 233.0
42.5 252.0
42.545 238.0
42.59 235.0
42.635 269.0
42.68 222.0
42.725 250.0
42.77 214.0
42.815 228.0
42.86 245.0
42.905 240.0
42.95 226.0
42.995 244.0
43.04 238.0
43.085 238.0
43.13 215.0
43.175 243.0
43.22 221.0
43.265 245.0
43.31 227.0
43.355 221.0
43.4 244.0
43.445 258.0
43.49 221.0
43.535 237.0
43.58 225.0
43.625 238.0
43.67 231.0
43.715 236.0
43.76 239.0
43.805 235.0
43.85 250.0
43.895 261.0
43.94 243.0
43.985 246.0
44.03 249.0
44.075 263.0
44.12 231.0
44.165 249.0
44.21 267.0
44.255 260.0
44.3 373.0
44.345 476.0
44.39 879.0
44.435 1339.0
44.48 1231.0
44.525 741.0
44.57 549.0
44.615 485.0
44.66 447.0
44.705 412.0
44.75 398.0
44.795 408.0
44.84 465.0
44.885 459.0
44.93 532.0
44.975 556.0
45.02 589.0
45.065 565.0
45.11 502.0
45.155 410.0
45.2 389.0
45.245 340.0
45.29 310.0
45.335 289.0
45.38 278.0
45.425 236.0
45.47 262.0
45.515 247.0
45.56 232.0
45.605 254.0
45.65 264.0
45.695 221.0
45.74 237.0
45.785 225.0
45.83 222.0
45.875 237.0
45.92 223.0
45.965 214.0
46.01 216.0
46.055 239.0
46.1 259.0
46.145 277.0
46.19 271.0
46.235 282.0
46.28 313.0
46.325 343.0
46.37 381.0
46.415 361.0
46.46 265.0
46.505 271.0
46.55 253.0
46.595 260.0
46.64 233.0
46.685 215.0
46.73 217.0
46.775 240.0
46.82 224.0
46.865 195.0
46.91 225.0
46.955 215.0
47.0 198.0
47.045 218.0
47.09 234.0
47.135 220.0
47.18 211.0
47.225 206.0
47.27 201.0
47.315 215.0
47.36 212.0
47.405 225.0
47.45 217.0
47.495 207.0
47.54 190.0
47.585 222.0
47.63 213.0
47.675 220.0
47.72 226.0
47.765 238.0
47.81 215.0
47.855 195.0
47.9 216.0
47.945 221.0
47.99 205.0
48.035 185.0
48.08 209.0
48.125 207.0
48.17 192.0
48.215 213.0
48.26 213.0
48.305 224.0
48.35 213.0
48.395 205.0
48.44 201.0
48.485 219.0
48.53 218.0
48.575 201.0
48.62 203.0
48.665 193.0
48.71 215.0
48.755 198.0
48.8 190.0
48.845 211.0
48.89 195.0
48.935 184.0
48.98 203.0
49.025 229.0
49.07 216.0
49.115 218.0
49.16 234.0
49.205 213.0
49.25 245.0
49.295 232.0
49.34 208.0
49.385 225.0
49.43 231.0
49.475 274.0
49.52 345.0
49.565 468.0
49.61 589.0
49.655 523.0
49.7 392.0
49.745 370.0
49.79 337.0
49.835 358.0
49.88 420.0
49.925 483.0
49.97 559.0
50.015 677.0
50.06 789.0
50.105 843.0
50.15 926.0
50.195 775.0
50.24 653.0
50.285 602.0
50.33 504.0
50.375 432.0
50.42 371.0
50.465 345.0
50.51 346.0
50.555 293.0
50.6 298.0
50.645 256.0
50.69 251.0
50.735 265.0
50.78 250.0
50.825 213.0
50.87 250.0
50.915 214.0
50.96 237.0
51.005 209.0
51.05 243.0
51.095 240.0
51.14 241.0
51.185 237.0
51.23 225.0
51.275 248.0
51.32 264.0
51.365 274.0
51.41 291.0
51.455 329.0
51.5 381.0
51.545 448.0
51.59 536.0
51.635 587.0
51.68 688.0
51.725 685.0
51.77 629.0
51.815 514.0
51.86 444.0
51.905 394.0
51.95 340.0
51.995 293.0
52.04 296.0
52.085 265.0
52.13 261.0
52.175 256.0
52.22 242.0
52.265 229.0
52.31 253.0
52.355 209.0
52.4 218.0
52.445 236.0
52.49 242.0
52.535 202.0
52.58 209.0
52.625 227.0
52.67 212.0
52.715 209.0
52.76 227.0
52.805 235.0
52.85 223.0
52.895 217.0
52.94 216.0
52.985 224.0
53.03 228.0
53.075 208.0
53.12 227.0
53.165 228.0
53.21 241.0
53.255 235.0
53.3 246.0
53.345 240.0
53.39 245.0
53.435 222.0
53.48 224.0
53.525 209.0
53.57 216.0
53.615 218.0
53.66 187.0
53.705 226.0
53.75 204.0
53.795 212.0
53.84 198.0
53.885 183.0
53.93 201.0
53.975 187.0
54.02 201.0
54.065 194.0
54.11 188.0
54.155 202.0
54.2 193.0
54.245 281.0
54.29 332.0
54.335 517.0
54.38 757.0
54.425 859.0
54.47 761.0
54.515 367.0
54.56 300.0
54.605 238.0
54.65 226.0
54.695 220.0
54.74 206.0
54.785 200.0
54.83 215.0
54.875 200.0
54.92 193.0
54.965 209.0
55.01 196.0
55.055 179.0
55.1 213.0
55.145 209.0
55.19 186.0
55.235 202.0
55.28 204.0
55.325 227.0
55.37 187.0
55.415 188.0
55.46 203.0
55.505 198.0
55.55 235.0
55.595 217.0
55.64 219.0
55.685 224.0
55.73 216.0
55.775 226.0
55.82 232.0
55.865 192.0
55.91 217.0
55.955 224.0
56.0 247.0
56.045 253.0
56.09 281.0
56.135 265.0
56.18 299.0
56.225 307.0
56.27 348.0
56.315 357.0
56.36 362.0
56.405 370.0
56.45 370.0
56.495 359.0
56.54 311.0
56.585 327.0
56.63 308.0
56.675 268.0
56.72 222.0
56.765 239.0
56.81 216.0
56.855 217.0
56.9 230.0
56.945 212.0
56.99 220.0
57.035 202.0
57.08 219.0
57.125 223.0
57.17 223.0
57.215 201.0
57.26 230.0
57.305 239.0
57.35 246.0
57.395 308.0
57.44 387.0
57.485 382.0
57.53 319.0
57.575 277.0
57.62 239.0
57.665 275.0
57.71 258.0
57.755 267.0
57.8 271.0
57.845 267.0
57.89 284.0
57.935 294.0
57.98 261.0
58.025 246.0
58.07 256.0
58.115 231.0
58.16 232.0
58.205 215.0
58.25 234.0
58.295 220.0
58.34 210.0
58.385 239.0
58.43 245.0
58.475 204.0
58.52 216.0
58.565 183.0
58.61 213.0
58.655 184.0
58.7 192.0
58.745 186.0
58.79 202.0
58.835 207.0
58.88 193.0
58.925 192.0
58.97 190.0
59.015 202.0
59.06 193.0
59.105 189.0
59.15 204.0
59.195 209.0
59.24 190.0
59.285 203.0
59.33 168.0
59.375 192.0
59.42 177.0
59.465 183.0
59.51 187.0
59.555 184.0
59.6 180.0
59.645 189.0
59.69 183.0
59.735 186.0
59.78 192.0
59.825 206.0
59.87 190.0
59.915 177.0
59.96 205.0
60.005 196.0
60.05 174.0
60.095 202.0
60.14 189.0
60.185 205.0
60.23 187.0
60.275 201.0
60.32 197.0
60.365 207.0
60.41 198.0
60.455 180.0
60.5 184.0
60.545 222.0
60.59 202.0
60.635 214.0
60.68 225.0
60.725 209.0
60.77 213.0
60.815 214.0
60.86 237.0
60.905 228.0
60.95 227.0
60.995 216.0
61.04 190.0
61.085 219.0
61.13 189.0
61.175 185.0
61.22 195.0
61.265 198.0
61.31 200.0
61.355 197.0
61.4 192.0
61.445 182.0
61.49 191.0
61.535 208.0
61.58 217.0
61.625 237.0
61.67 211.0
61.715 211.0
61.76 237.0
61.805 207.0
61.85 233.0
61.895 236.0
61.94 216.0
61.985 253.0