File: ISoD/xrd_data/HSC065.xy
2.00000 2.000
2.04500 1.000
2.09000 3.000
2.13500 4.000
2.18000 6.000
2.22500 4.000
2.27000 6.000
2.31500 5.000
2.36000 2.000
2.40500 9.000
2.45000 4.000
2.49500 7.000
2.54000 5.000
2.58500 4.000
2.63000 6.000
2.67500 3.000
2.72000 3.000
2.76500 2.000
2.81000 4.000
2.85500 5.000
2.90000 22.000
2.94500 103.000
2.99000 226.000
3.03500 373.000
3.08000 414.000
3.12500 432.000
3.17000 398.000
3.21500 423.000
3.26000 387.000
3.30500 398.000
3.35000 381.000
3.39500 396.000
3.44000 364.000
3.48500 380.000
3.53000 366.000
3.57500 344.000
3.62000 385.000
3.66500 362.000
3.71000 376.000
3.75500 386.000
3.80000 361.000
3.84500 333.000
3.89000 375.000
3.93500 369.000
3.98000 355.000
4.02500 346.000
4.07000 353.000
4.11500 352.000
4.16000 338.000
4.20500 371.000
4.25000 346.000
4.29500 348.000
4.34000 340.000
4.38500 381.000
4.43000 367.000
4.47500 354.000
4.52000 354.000
4.56500 363.000
4.61000 366.000
4.65500 348.000
4.70000 381.000
4.74500 332.000
4.79000 360.000
4.83500 388.000
4.88000 361.000
4.92500 369.000
4.97000 372.000
5.01500 380.000
5.06000 379.000
5.10500 387.000
5.15000 372.000
5.19500 370.000
5.24000 370.000
5.28500 386.000
5.33000 361.000
5.37500 368.000
5.42000 422.000
5.46500 385.000
5.51000 376.000
5.55500 398.000
5.60000 389.000
5.64500 375.000
5.69000 397.000
5.73500 414.000
5.78000 383.000
5.82500 346.000
5.87000 408.000
5.91500 384.000
5.96000 353.000
6.00500 425.000
6.05000 369.000
6.09500 426.000
6.14000 382.000
6.18500 408.000
6.23000 392.000
6.27500 397.000
6.32000 411.000
6.36500 426.000
6.41000 412.000
6.45500 413.000
6.50000 426.000
6.54500 428.000
6.59000 428.000
6.63500 407.000
6.68000 388.000
6.72500 416.000
6.77000 399.000
6.81500 409.000
6.86000 379.000
6.90500 420.000
6.95000 404.000
6.99500 430.000
7.04000 413.000
7.08500 396.000
7.13000 422.000
7.17500 390.000
7.22000 371.000
7.26500 427.000
7.31000 420.000
7.35500 406.000
7.40000 434.000
7.44500 415.000
7.49000 409.000
7.53500 394.000
7.58000 422.000
7.62500 390.000
7.67000 435.000
7.71500 389.000
7.76000 403.000
7.80500 425.000
7.85000 390.000
7.89500 377.000
7.94000 424.000
7.98500 383.000
8.03000 386.000
8.07500 386.000
8.12000 414.000
8.16500 412.000
8.21000 394.000
8.25500 393.000
8.30000 383.000
8.34500 394.000
8.39000 412.000
8.43500 421.000
8.48000 415.000
8.52500 422.000
8.57000 399.000
8.61500 405.000
8.66000 454.000
8.70500 421.000
8.75000 392.000
8.79500 399.000
8.84000 435.000
8.88500 409.000
8.93000 388.000
8.97500 394.000
9.02000 445.000
9.06500 428.000
9.11000 418.000
9.15500 404.000
9.20000 423.000
9.24500 388.000
9.29000 423.000
9.33500 435.000
9.38000 422.000
9.42500 390.000
9.47000 415.000
9.51500 429.000
9.56000 426.000
9.60500 436.000
9.65000 409.000
9.69500 431.000
9.74000 424.000
9.78500 449.000
9.83000 434.000
9.87500 448.000
9.92000 460.000
9.96500 429.000
10.01000 439.000
10.05500 486.000
10.10000 491.000
10.14500 527.000
10.19000 565.000
10.23500 578.000
10.28000 612.000
10.32500 592.000
10.37000 530.000
10.41500 511.000
10.46000 494.000
10.50500 460.000
10.55000 495.000
10.59500 553.000
10.64000 517.000
10.68500 511.000
10.73000 502.000
10.77500 514.000
10.82000 565.000
10.86500 547.000
10.91000 569.000
10.95500 607.000
11.00000 611.000
11.04500 549.000
11.09000 540.000
11.13500 489.000
11.18000 499.000
11.22500 488.000
11.27000 451.000
11.31500 474.000
11.36000 481.000
11.40500 490.000
11.45000 435.000
11.49500 434.000
11.54000 469.000
11.58500 504.000
11.63000 479.000
11.67500 458.000
11.72000 506.000
11.76500 518.000
11.81000 574.000
11.85500 695.000
11.90000 822.000
11.94500 1122.000
11.99000 1556.000
12.03500 2478.000
12.08000 2857.000
12.12500 1434.000
12.17000 861.000
12.21500 664.000
12.26000 515.000
12.30500 513.000
12.35000 501.000
12.39500 474.000
12.44000 448.000
12.48500 479.000
12.53000 500.000
12.57500 463.000
12.62000 455.000
12.66500 464.000
12.71000 475.000
12.75500 418.000
12.80000 442.000
12.84500 440.000
12.89000 448.000
12.93500 468.000
12.98000 434.000
13.02500 411.000
13.07000 435.000
13.11500 470.000
13.16000 460.000
13.20500 425.000
13.25000 401.000
13.29500 447.000
13.34000 411.000
13.38500 418.000
13.43000 400.000
13.47500 445.000
13.52000 423.000
13.56500 439.000
13.61000 465.000
13.65500 431.000
13.70000 424.000
13.74500 432.000
13.79000 401.000
13.83500 436.000
13.88000 423.000
13.92500 393.000
13.97000 430.000
14.01500 414.000
14.06000 446.000
14.10500 456.000
14.15000 428.000
14.19500 427.000
14.24000 430.000
14.28500 439.000
14.33000 428.000
14.37500 422.000
14.42000 438.000
14.46500 455.000
14.51000 430.000
14.55500 428.000
14.60000 421.000
14.64500 433.000
14.69000 412.000
14.73500 439.000
14.78000 428.000
14.82500 430.000
14.87000 422.000
14.91500 416.000
14.96000 447.000
15.00500 408.000
15.05000 422.000
15.09500 449.000
15.14000 433.000
15.18500 453.000
15.23000 451.000
15.27500 462.000
15.32000 456.000
15.36500 447.000
15.41000 458.000
15.45500 450.000
15.50000 449.000
15.54500 458.000
15.59000 437.000
15.63500 450.000
15.68000 413.000
15.72500 456.000
15.77000 453.000
15.81500 427.000
15.86000 440.000
15.90500 425.000
15.95000 461.000
15.99500 429.000
16.04000 444.000
16.08500 426.000
16.13000 434.000
16.17500 423.000
16.22000 447.000
16.26500 463.000
16.31000 413.000
16.35500 456.000
16.40000 456.000
16.44500 457.000
16.49000 451.000
16.53500 426.000
16.58000 448.000
16.62500 455.000
16.67000 448.000
16.71500 451.000
16.76000 476.000
16.80500 425.000
16.85000 431.000
16.89500 462.000
16.94000 457.000
16.98500 450.000
17.03000 465.000
17.07500 462.000
17.12000 461.000
17.16500 493.000
17.21000 484.000
17.25500 457.000
17.30000 445.000
17.34500 474.000
17.39000 457.000
17.43500 422.000
17.48000 450.000
17.52500 430.000
17.57000 436.000
17.61500 437.000
17.66000 424.000
17.70500 446.000
17.75000 457.000
17.79500 427.000
17.84000 437.000
17.88500 429.000
17.93000 415.000
17.97500 454.000
18.02000 445.000
18.06500 422.000
18.11000 446.000
18.15500 465.000
18.20000 453.000
18.24500 447.000
18.29000 401.000
18.33500 430.000
18.38000 449.000
18.42500 418.000
18.47000 466.000
18.51500 491.000
18.56000 468.000
18.60500 446.000
18.65000 486.000
18.69500 471.000
18.74000 491.000
18.78500 459.000
18.83000 432.000
18.87500 433.000
18.92000 452.000
18.96500 423.000
19.01000 448.000
19.05500 436.000
19.10000 463.000
19.14500 451.000
19.19000 471.000
19.23500 418.000
19.28000 443.000
19.32500 458.000
19.37000 464.000
19.41500 447.000
19.46000 467.000
19.50500 444.000
19.55000 432.000
19.59500 458.000
19.64000 453.000
19.68500 460.000
19.73000 431.000
19.77500 470.000
19.82000 474.000
19.86500 457.000
19.91000 415.000
19.95500 427.000
20.00000 486.000
20.04500 444.000
20.09000 470.000
20.13500 448.000
20.18000 456.000
20.22500 501.000
20.27000 492.000
20.31500 503.000
20.36000 492.000
20.40500 495.000
20.45000 479.000
20.49500 481.000
20.54000 474.000
20.58500 579.000
20.63000 544.000
20.67500 560.000
20.72000 602.000
20.76500 690.000
20.81000 812.000
20.85500 1165.000
20.90000 1950.000
20.94500 3482.000
20.99000 5166.000
21.03500 3172.000
21.08000 1457.000
21.12500 895.000
21.17000 677.000
21.21500 570.000
21.26000 557.000
21.30500 531.000
21.35000 508.000
21.39500 515.000
21.44000 513.000
21.48500 516.000
21.53000 537.000
21.57500 491.000
21.62000 476.000
21.66500 536.000
21.71000 519.000
21.75500 493.000
21.80000 478.000
21.84500 493.000
21.89000 518.000
21.93500 447.000
21.98000 519.000
22.02500 506.000
22.07000 502.000
22.11500 509.000
22.16000 488.000
22.20500 489.000
22.25000 504.000
22.29500 494.000
22.34000 465.000
22.38500 519.000
22.43000 518.000
22.47500 555.000
22.52000 520.000
22.56500 506.000
22.61000 497.000
22.65500 532.000
22.70000 554.000
22.74500 548.000
22.79000 518.000
22.83500 526.000
22.88000 507.000
22.92500 535.000
22.97000 518.000
23.01500 539.000
23.06000 524.000
23.10500 491.000
23.15000 497.000
23.19500 515.000
23.24000 499.000
23.28500 469.000
23.33000 493.000
23.37500 501.000
23.42000 512.000
23.46500 485.000
23.51000 498.000
23.55500 480.000
23.60000 489.000
23.64500 458.000
23.69000 494.000
23.73500 516.000
23.78000 466.000
23.82500 462.000
23.87000 464.000
23.91500 532.000
23.96000 522.000
24.00500 536.000
24.05000 589.000
24.09500 629.000
24.14000 750.000
24.18500 1046.000
24.23000 1743.000
24.27500 2631.000
24.32000 1996.000
24.36500 1122.000
24.41000 785.000
24.45500 701.000
24.50000 681.000
24.54500 696.000
24.59000 745.000
24.63500 761.000
24.68000 906.000
24.72500 1026.000
24.77000 1131.000
24.81500 1271.000
24.86000 1203.000
24.90500 1061.000
24.95000 866.000
24.99500 763.000
25.04000 715.000
25.08500 677.000
25.13000 607.000
25.17500 592.000
25.22000 568.000
25.26500 566.000
25.31000 582.000
25.35500 571.000
25.40000 556.000
25.44500 578.000
25.49000 583.000
25.53500 576.000
25.58000 559.000
25.62500 593.000
25.67000 569.000
25.71500 568.000
25.76000 603.000
25.80500 585.000
25.85000 595.000
25.89500 590.000
25.94000 647.000
25.98500 723.000
26.03000 758.000
26.07500 858.000
26.12000 1075.000
26.16500 1488.000
26.21000 2216.000
26.25500 3314.000
26.30000 4756.000
26.34500 6044.000
26.39000 6775.000
26.43500 6282.000
26.48000 4436.000
26.52500 2545.000
26.57000 1563.000
26.61500 1191.000
26.66000 989.000
26.70500 856.000
26.75000 782.000
26.79500 775.000
26.84000 721.000
26.88500 680.000
26.93000 678.000
26.97500 633.000
27.02000 597.000
27.06500 595.000
27.11000 645.000
27.15500 573.000
27.20000 592.000
27.24500 588.000
27.29000 571.000
27.33500 589.000
27.38000 577.000
27.42500 584.000
27.47000 569.000
27.51500 615.000
27.56000 583.000
27.60500 621.000
27.65000 618.000
27.69500 651.000
27.74000 632.000
27.78500 674.000
27.83000 703.000
27.87500 737.000
27.92000 712.000
27.96500 742.000
28.01000 779.000
28.05500 776.000
28.10000 785.000
28.14500 747.000
28.19000 721.000
28.23500 673.000
28.28000 678.000
28.32500 652.000
28.37000 624.000
28.41500 637.000
28.46000 630.000
28.50500 615.000
28.55000 665.000
28.59500 730.000
28.64000 809.000
28.68500 896.000
28.73000 1038.000
28.77500 1295.000
28.82000 1576.000
28.86500 1966.000
28.91000 2453.000
28.95500 3147.000
29.00000 3847.000
29.04500 4497.000
29.09000 5071.000
29.13500 5508.000
29.18000 5368.000
29.22500 4101.000
29.27000 2909.000
29.31500 2107.000
29.36000 1613.000
29.40500 1325.000
29.45000 1033.000
29.49500 863.000
29.54000 766.000
29.58500 685.000
29.63000 608.000
29.67500 562.000
29.72000 542.000
29.76500 516.000
29.81000 493.000
29.85500 523.000
29.90000 521.000
29.94500 461.000
29.99000 460.000
30.03500 467.000
30.08000 444.000
30.12500 478.000
30.17000 457.000
30.21500 442.000
30.26000 468.000
30.30500 435.000
30.35000 451.000
30.39500 398.000
30.44000 424.000
30.48500 454.000
30.53000 459.000
30.57500 440.000
30.62000 419.000
30.66500 403.000
30.71000 425.000
30.75500 424.000
30.80000 395.000
30.84500 476.000
30.89000 386.000
30.93500 416.000
30.98000 443.000
31.02500 412.000
31.07000 416.000
31.11500 402.000
31.16000 397.000
31.20500 401.000
31.25000 371.000
31.29500 404.000
31.34000 394.000
31.38500 382.000
31.43000 408.000
31.47500 386.000
31.52000 382.000
31.56500 379.000
31.61000 367.000
31.65500 402.000
31.70000 397.000
31.74500 382.000
31.79000 371.000
31.83500 411.000
31.88000 390.000
31.92500 391.000
31.97000 421.000
32.01500 428.000
32.06000 452.000
32.10500 572.000
32.15000 635.000
32.19500 1032.000
32.24000 1907.000
32.28500 3390.000
32.33000 3408.000
32.37500 2041.000
32.42000 1099.000
32.46500 692.000
32.51000 544.000
32.55500 480.000
32.60000 437.000
32.64500 389.000
32.69000 434.000
32.73500 399.000
32.78000 385.000
32.82500 391.000
32.87000 399.000
32.91500 366.000
32.96000 346.000
33.00500 371.000
33.05000 344.000
33.09500 329.000
33.14000 357.000
33.18500 352.000
33.23000 348.000
33.27500 383.000
33.32000 368.000
33.36500 355.000
33.41000 349.000
33.45500 371.000
33.50000 397.000
33.54500 378.000
33.59000 375.000
33.63500 380.000
33.68000 421.000
33.72500 461.000
33.77000 441.000
33.81500 488.000
33.86000 521.000
33.90500 540.000
33.95000 553.000
33.99500 578.000
34.04000 587.000
34.08500 517.000
34.13000 475.000
34.17500 409.000
34.22000 377.000
34.26500 354.000
34.31000 375.000
34.35500 362.000
34.40000 345.000
34.44500 328.000
34.49000 368.000
34.53500 350.000
34.58000 341.000
34.62500 335.000
34.67000 335.000
34.71500 336.000
34.76000 357.000
34.80500 380.000
34.85000 401.000
34.89500 435.000
34.94000 484.000
34.98500 567.000
35.03000 496.000
35.07500 481.000
35.12000 414.000
35.16500 400.000
35.21000 372.000
35.25500 356.000
35.30000 338.000
35.34500 316.000
35.39000 306.000
35.43500 310.000
35.48000 291.000
35.52500 305.000
35.57000 315.000
35.61500 314.000
35.66000 303.000
35.70500 311.000
35.75000 323.000
35.79500 338.000
35.84000 354.000
35.88500 401.000
35.93000 425.000
35.97500 446.000
36.02000 448.000
36.06500 492.000
36.11000 488.000
36.15500 543.000
36.20000 555.000
36.24500 545.000
36.29000 499.000
36.33500 452.000
36.38000 417.000
36.42500 360.000
36.47000 361.000
36.51500 342.000
36.56000 331.000
36.60500 313.000
36.65000 323.000
36.69500 317.000
36.74000 390.000
36.78500 429.000
36.83000 381.000
36.87500 321.000
36.92000 300.000
36.96500 278.000
37.01000 289.000
37.05500 254.000
37.10000 273.000
37.14500 266.000
37.19000 273.000
37.23500 256.000
37.28000 256.000
37.32500 276.000
37.37000 266.000
37.41500 254.000
37.46000 250.000
37.50500 282.000
37.55000 260.000
37.59500 275.000
37.64000 237.000
37.68500 255.000
37.73000 245.000
37.77500 246.000
37.82000 250.000
37.86500 234.000
37.91000 246.000
37.95500 242.000
38.00000 247.000
38.04500 260.000
38.09000 247.000
38.13500 250.000
38.18000 240.000
38.22500 230.000
38.27000 242.000
38.31500 255.000
38.36000 239.000
38.40500 274.000
38.45000 248.000
38.49500 244.000
38.54000 251.000
38.58500 252.000
38.63000 238.000
38.67500 254.000
38.72000 242.000
38.76500 250.000
38.81000 246.000
38.85500 263.000
38.90000 272.000
38.94500 255.000
38.99000 266.000
39.03500 249.000
39.08000 238.000
39.12500 250.000
39.17000 254.000
39.21500 219.000
39.26000 268.000
39.30500 241.000
39.35000 267.000
39.39500 256.000
39.44000 250.000
39.48500 245.000
39.53000 242.000
39.57500 237.000
39.62000 253.000
39.66500 242.000
39.71000 237.000
39.75500 231.000
39.80000 236.000
39.84500 256.000
39.89000 256.000
39.93500 226.000
39.98000 267.000
40.02500 245.000
40.07000 238.000
40.11500 225.000
40.16000 233.000
40.20500 239.000
40.25000 223.000
40.29500 233.000
40.34000 226.000
40.38500 234.000
40.43000 251.000
40.47500 245.000
40.52000 253.000
40.56500 236.000
40.61000 237.000
40.65500 245.000
40.70000 244.000
40.74500 241.000
40.79000 232.000
40.83500 252.000
40.88000 239.000
40.92500 233.000
40.97000 228.000
41.01500 249.000
41.06000 256.000
41.10500 232.000
41.15000 254.000
41.19500 229.000
41.24000 253.000
41.28500 233.000
41.33000 238.000
41.37500 241.000
41.42000 258.000
41.46500 254.000
41.51000 247.000
41.55500 257.000
41.60000 221.000
41.64500 241.000
41.69000 223.000
41.73500 272.000
41.78000 231.000
41.82500 266.000
41.87000 266.000
41.91500 283.000
41.96000 277.000
42.00500 299.000
42.05000 302.000
42.09500 321.000
42.14000 339.000
42.18500 314.000
42.23000 314.000
42.27500 281.000
42.32000 288.000
42.36500 273.000
42.41000 290.000
42.45500 294.000
42.50000 284.000
42.54500 300.000
42.59000 334.000
42.63500 422.000
42.68000 622.000
42.72500 778.000
42.77000 636.000
42.81500 449.000
42.86000 346.000
42.90500 307.000
42.95000 264.000
42.99500 252.000
43.04000 267.000
43.08500 238.000
43.13000 255.000
43.17500 278.000
43.22000 259.000
43.26500 255.000
43.31000 235.000
43.35500 255.000
43.40000 271.000
43.44500 237.000
43.49000 233.000
43.53500 237.000
43.58000 247.000
43.62500 218.000
43.67000 246.000
43.71500 242.000
43.76000 256.000
43.80500 232.000
43.85000 225.000
43.89500 246.000
43.94000 245.000
43.98500 249.000
44.03000 253.000
44.07500 245.000
44.12000 270.000
44.16500 258.000
44.21000 246.000
44.25500 278.000
44.30000 285.000
44.34500 276.000
44.39000 299.000
44.43500 349.000
44.48000 520.000
44.52500 771.000
44.57000 968.000
44.61500 781.000
44.66000 568.000
44.70500 537.000
44.75000 534.000
44.79500 554.000
44.84000 615.000
44.88500 652.000
44.93000 608.000
44.97500 513.000
45.02000 443.000
45.06500 421.000
45.11000 402.000
45.15500 340.000
45.20000 327.000
45.24500 310.000
45.29000 333.000
45.33500 301.000
45.38000 331.000
45.42500 312.000
45.47000 332.000
45.51500 355.000
45.56000 374.000
45.60500 406.000
45.65000 438.000
45.69500 435.000
45.74000 408.000
45.78500 479.000
45.83000 444.000
45.87500 470.000
45.92000 458.000
45.96500 396.000
46.01000 416.000
46.05500 366.000
46.10000 340.000
46.14500 321.000
46.19000 328.000
46.23500 298.000
46.28000 303.000
46.32500 291.000
46.37000 311.000
46.41500 350.000
46.46000 339.000
46.50500 389.000
46.55000 429.000
46.59500 503.000
46.64000 517.000
46.68500 520.000
46.73000 444.000
46.77500 431.000
46.82000 372.000
46.86500 317.000
46.91000 312.000
46.95500 269.000
47.00000 280.000
47.04500 262.000
47.09000 231.000
47.13500 240.000
47.18000 235.000
47.22500 228.000
47.27000 228.000
47.31500 245.000
47.36000 235.000
47.40500 230.000
47.45000 219.000
47.49500 245.000
47.54000 212.000
47.58500 234.000
47.63000 226.000
47.67500 219.000
47.72000 194.000
47.76500 195.000
47.81000 222.000
47.85500 198.000
47.90000 217.000
47.94500 218.000
47.99000 227.000
48.03500 205.000
48.08000 201.000
48.12500 217.000
48.17000 203.000
48.21500 227.000
48.26000 193.000
48.30500 209.000
48.35000 222.000
48.39500 213.000
48.44000 202.000
48.48500 250.000
48.53000 240.000
48.57500 209.000
48.62000 195.000
48.66500 208.000
48.71000 220.000
48.75500 195.000
48.80000 213.000
48.84500 222.000
48.89000 199.000
48.93500 213.000
48.98000 203.000
49.02500 222.000
49.07000 224.000
49.11500 220.000
49.16000 238.000
49.20500 222.000
49.25000 243.000
49.29500 217.000
49.34000 221.000
49.38500 233.000
49.43000 235.000
49.47500 212.000
49.52000 259.000
49.56500 240.000
49.61000 238.000
49.65500 283.000
49.70000 356.000
49.74500 446.000
49.79000 346.000
49.83500 344.000
49.88000 281.000
49.92500 253.000
49.97000 251.000
50.01500 254.000
50.06000 241.000
50.10500 239.000
50.15000 261.000
50.19500 264.000
50.24000 251.000
50.28500 313.000
50.33000 303.000
50.37500 342.000
50.42000 346.000
50.46500 387.000
50.51000 400.000
50.55500 454.000
50.60000 514.000
50.64500 555.000
50.69000 616.000
50.73500 677.000
50.78000 738.000
50.82500 759.000
50.87000 864.000
50.91500 893.000
50.96000 880.000
51.00500 855.000
51.05000 806.000
51.09500 695.000
51.14000 574.000
51.18500 550.000
51.23000 484.000
51.27500 454.000
51.32000 418.000
51.36500 374.000
51.41000 354.000
51.45500 333.000
51.50000 324.000
51.54500 281.000
51.59000 235.000
51.63500 298.000
51.68000 269.000
51.72500 237.000
51.77000 228.000
51.81500 230.000
51.86000 224.000
51.90500 227.000
51.95000 225.000
51.99500 237.000
52.04000 243.000
52.08500 238.000
52.13000 243.000
52.17500 249.000
52.22000 249.000
52.26500 268.000
52.31000 247.000
52.35500 269.000
52.40000 256.000
52.44500 268.000
52.49000 281.000
52.53500 270.000
52.58000 275.000
52.62500 273.000
52.67000 260.000
52.71500 259.000
52.76000 247.000
52.80500 232.000
52.85000 231.000
52.89500 238.000
52.94000 215.000
52.98500 235.000
53.03000 221.000
53.07500 207.000
53.12000 212.000
53.16500 236.000
53.21000 222.000
53.25500 217.000
53.30000 210.000
53.34500 197.000
53.39000 232.000
53.43500 213.000
53.48000 203.000
53.52500 211.000
53.57000 214.000
53.61500 218.000
53.66000 239.000
53.70500 229.000
53.75000 211.000
53.79500 257.000
53.84000 256.000
53.88500 263.000
53.93000 286.000
53.97500 305.000
54.02000 328.000
54.06500 365.000
54.11000 412.000
54.15500 450.000
54.20000 502.000
54.24500 531.000
54.29000 583.000
54.33500 620.000
54.38000 644.000
54.42500 709.000
54.47000 772.000
54.51500 957.000
54.56000 1075.000
54.60500 854.000
54.65000 656.000
54.69500 497.000
54.74000 356.000
54.78500 324.000
54.83000 262.000
54.87500 256.000
54.92000 234.000
54.96500 218.000
55.01000 236.000
55.05500 215.000
55.10000 228.000
55.14500 226.000
55.19000 231.000
55.23500 228.000
55.28000 217.000
55.32500 193.000
55.37000 220.000
55.41500 198.000
55.46000 224.000
55.50500 201.000
55.55000 219.000
55.59500 221.000
55.64000 192.000
55.68500 202.000
55.73000 196.000
55.77500 205.000
55.82000 187.000
55.86500 202.000
55.91000 186.000
55.95500 189.000
56.00000 195.000
56.04500 206.000
56.09000 179.000
56.13500 188.000
56.18000 209.000
56.22500 205.000
56.27000 198.000
56.31500 229.000
56.36000 186.000
56.40500 191.000
56.45000 193.000
56.49500 217.000
56.54000 204.000
56.58500 210.000
56.63000 195.000
56.67500 188.000
56.72000 187.000
56.76500 215.000
56.81000 214.000
56.85500 202.000
56.90000 201.000
56.94500 210.000
56.99000 198.000
57.03500 197.000
57.08000 192.000
57.12500 203.000
57.17000 204.000
57.21500 216.000
57.26000 195.000
57.30500 228.000
57.35000 224.000
57.39500 204.000
57.44000 230.000
57.48500 208.000
57.53000 205.000
57.57500 254.000
57.62000 260.000
57.66500 241.000
57.71000 237.000
57.75500 227.000
57.80000 221.000
57.84500 173.000
57.89000 210.000
57.93500 212.000
57.98000 196.000
58.02500 190.000
58.07000 172.000
58.11500 181.000
58.16000 202.000
58.20500 219.000
58.25000 208.000
58.29500 209.000
58.34000 213.000
58.38500 198.000
58.43000 215.000
58.47500 206.000
58.52000 228.000
58.56500 215.000
58.61000 250.000
58.65500 204.000
58.70000 248.000
58.74500 220.000
58.79000 237.000
58.83500 243.000
58.88000 240.000
58.92500 242.000
58.97000 216.000
59.01500 238.000
59.06000 249.000
59.10500 220.000
59.15000 237.000
59.19500 239.000
59.24000 243.000
59.28500 242.000
59.33000 249.000
59.37500 244.000
59.42000 226.000
59.46500 210.000
59.51000 238.000
59.55500 225.000
59.60000 210.000
59.64500 223.000
59.69000 216.000
59.73500 214.000
59.78000 201.000
59.82500 229.000
59.87000 238.000
59.91500 217.000
59.96000 226.000
60.00500 233.000
60.05000 242.000
60.09500 253.000
60.14000 235.000
60.18500 230.000
60.23000 240.000
60.27500 231.000
60.32000 244.000
60.36500 218.000
60.41000 210.000
60.45500 222.000
60.50000 212.000
60.54500 234.000
60.59000 212.000
60.63500 215.000
60.68000 245.000
60.72500 211.000
60.77000 184.000
60.81500 194.000
60.86000 200.000
60.90500 207.000
60.95000 196.000
60.99500 197.000
61.04000 200.000
61.08500 198.000
61.13000 180.000
61.17500 188.000
61.22000 212.000
61.26500 186.000
61.31000 218.000
61.35500 210.000
61.40000 209.000
61.44500 232.000
61.49000 211.000
61.53500 199.000
61.58000 212.000
61.62500 215.000
61.67000 213.000
61.71500 174.000
61.76000 181.000
61.80500 205.000
61.85000 175.000
61.89500 177.000
61.94000 184.000
61.98500 190.000