File: ISoD/xrd_data/HSC040.xy
2.00000 5.000
2.04500 3.000
2.09000 5.000
2.13500 4.000
2.18000 4.000
2.22500 4.000
2.27000 8.000
2.31500 4.000
2.36000 5.000
2.40500 4.000
2.45000 3.000
2.49500 4.000
2.54000 4.000
2.58500 4.000
2.63000 6.000
2.67500 7.000
2.72000 6.000
2.76500 4.000
2.81000 1.000
2.85500 1.000
2.90000 3.000
2.94500 4.000
2.99000 7.000
3.03500 7.000
3.08000 16.000
3.12500 26.000
3.17000 52.000
3.21500 186.000
3.26000 378.000
3.30500 491.000
3.35000 577.000
3.39500 568.000
3.44000 513.000
3.48500 503.000
3.53000 473.000
3.57500 463.000
3.62000 451.000
3.66500 427.000
3.71000 428.000
3.75500 421.000
3.80000 396.000
3.84500 428.000
3.89000 404.000
3.93500 361.000
3.98000 365.000
4.02500 366.000
4.07000 372.000
4.11500 373.000
4.16000 360.000
4.20500 337.000
4.25000 341.000
4.29500 350.000
4.34000 361.000
4.38500 335.000
4.43000 291.000
4.47500 336.000
4.52000 328.000
4.56500 334.000
4.61000 325.000
4.65500 336.000
4.70000 317.000
4.74500 307.000
4.79000 312.000
4.83500 291.000
4.88000 307.000
4.92500 306.000
4.97000 320.000
5.01500 330.000
5.06000 272.000
5.10500 318.000
5.15000 306.000
5.19500 287.000
5.24000 290.000
5.28500 302.000
5.33000 311.000
5.37500 297.000
5.42000 305.000
5.46500 284.000
5.51000 309.000
5.55500 306.000
5.60000 284.000
5.64500 278.000
5.69000 304.000
5.73500 278.000
5.78000 258.000
5.82500 306.000
5.87000 292.000
5.91500 258.000
5.96000 255.000
6.00500 299.000
6.05000 264.000
6.09500 287.000
6.14000 274.000
6.18500 283.000
6.23000 279.000
6.27500 285.000
6.32000 288.000
6.36500 303.000
6.41000 283.000
6.45500 266.000
6.50000 293.000
6.54500 279.000
6.59000 278.000
6.63500 271.000
6.68000 293.000
6.72500 289.000
6.77000 272.000
6.81500 280.000
6.86000 278.000
6.90500 265.000
6.95000 242.000
6.99500 290.000
7.04000 261.000
7.08500 272.000
7.13000 271.000
7.17500 293.000
7.22000 263.000
7.26500 259.000
7.31000 283.000
7.35500 289.000
7.40000 281.000
7.44500 278.000
7.49000 292.000
7.53500 270.000
7.58000 296.000
7.62500 248.000
7.67000 275.000
7.71500 295.000
7.76000 296.000
7.80500 262.000
7.85000 312.000
7.89500 281.000
7.94000 289.000
7.98500 288.000
8.03000 281.000
8.07500 282.000
8.12000 287.000
8.16500 279.000
8.21000 266.000
8.25500 308.000
8.30000 270.000
8.34500 296.000
8.39000 308.000
8.43500 286.000
8.48000 259.000
8.52500 275.000
8.57000 294.000
8.61500 271.000
8.66000 285.000
8.70500 287.000
8.75000 294.000
8.79500 274.000
8.84000 253.000
8.88500 283.000
8.93000 271.000
8.97500 276.000
9.02000 266.000
9.06500 269.000
9.11000 271.000
9.15500 270.000
9.20000 268.000
9.24500 272.000
9.29000 255.000
9.33500 281.000
9.38000 282.000
9.42500 272.000
9.47000 276.000
9.51500 290.000
9.56000 272.000
9.60500 284.000
9.65000 249.000
9.69500 269.000
9.74000 258.000
9.78500 283.000
9.83000 255.000
9.87500 282.000
9.92000 297.000
9.96500 262.000
10.01000 273.000
10.05500 267.000
10.10000 258.000
10.14500 294.000
10.19000 307.000
10.23500 306.000
10.28000 271.000
10.32500 265.000
10.37000 293.000
10.41500 280.000
10.46000 324.000
10.50500 274.000
10.55000 268.000
10.59500 299.000
10.64000 278.000
10.68500 287.000
10.73000 274.000
10.77500 274.000
10.82000 291.000
10.86500 290.000
10.91000 275.000
10.95500 277.000
11.00000 283.000
11.04500 289.000
11.09000 314.000
11.13500 288.000
11.18000 307.000
11.22500 287.000
11.27000 321.000
11.31500 301.000
11.36000 306.000
11.40500 301.000
11.45000 315.000
11.49500 307.000
11.54000 300.000
11.58500 303.000
11.63000 313.000
11.67500 325.000
11.72000 352.000
11.76500 389.000
11.81000 425.000
11.85500 478.000
11.90000 502.000
11.94500 556.000
11.99000 665.000
12.03500 708.000
12.08000 705.000
12.12500 640.000
12.17000 529.000
12.21500 470.000
12.26000 395.000
12.30500 374.000
12.35000 361.000
12.39500 319.000
12.44000 337.000
12.48500 317.000
12.53000 325.000
12.57500 322.000
12.62000 321.000
12.66500 324.000
12.71000 294.000
12.75500 283.000
12.80000 288.000
12.84500 290.000
12.89000 298.000
12.93500 291.000
12.98000 290.000
13.02500 290.000
13.07000 285.000
13.11500 267.000
13.16000 282.000
13.20500 275.000
13.25000 271.000
13.29500 295.000
13.34000 256.000
13.38500 274.000
13.43000 284.000
13.47500 274.000
13.52000 263.000
13.56500 267.000
13.61000 280.000
13.65500 294.000
13.70000 298.000
13.74500 265.000
13.79000 275.000
13.83500 294.000
13.88000 277.000
13.92500 278.000
13.97000 283.000
14.01500 276.000
14.06000 281.000
14.10500 264.000
14.15000 296.000
14.19500 283.000
14.24000 295.000
14.28500 280.000
14.33000 281.000
14.37500 271.000
14.42000 294.000
14.46500 262.000
14.51000 281.000
14.55500 278.000
14.60000 310.000
14.64500 273.000
14.69000 283.000
14.73500 273.000
14.78000 271.000
14.82500 276.000
14.87000 262.000
14.91500 280.000
14.96000 268.000
15.00500 260.000
15.05000 279.000
15.09500 303.000
15.14000 279.000
15.18500 252.000
15.23000 298.000
15.27500 287.000
15.32000 269.000
15.36500 284.000
15.41000 276.000
15.45500 291.000
15.50000 279.000
15.54500 272.000
15.59000 262.000
15.63500 286.000
15.68000 276.000
15.72500 277.000
15.77000 290.000
15.81500 269.000
15.86000 277.000
15.90500 256.000
15.95000 263.000
15.99500 267.000
16.04000 264.000
16.08500 284.000
16.13000 260.000
16.17500 277.000
16.22000 273.000
16.26500 256.000
16.31000 298.000
16.35500 296.000
16.40000 270.000
16.44500 290.000
16.49000 268.000
16.53500 298.000
16.58000 295.000
16.62500 278.000
16.67000 283.000
16.71500 288.000
16.76000 310.000
16.80500 287.000
16.85000 267.000
16.89500 272.000
16.94000 271.000
16.98500 286.000
17.03000 263.000
17.07500 292.000
17.12000 313.000
17.16500 273.000
17.21000 290.000
17.25500 290.000
17.30000 299.000
17.34500 286.000
17.39000 261.000
17.43500 316.000
17.48000 300.000
17.52500 279.000
17.57000 289.000
17.61500 295.000
17.66000 264.000
17.70500 300.000
17.75000 280.000
17.79500 280.000
17.84000 260.000
17.88500 286.000
17.93000 293.000
17.97500 285.000
18.02000 296.000
18.06500 270.000
18.11000 289.000
18.15500 293.000
18.20000 280.000
18.24500 286.000
18.29000 303.000
18.33500 290.000
18.38000 296.000
18.42500 274.000
18.47000 290.000
18.51500 269.000
18.56000 314.000
18.60500 280.000
18.65000 283.000
18.69500 278.000
18.74000 299.000
18.78500 298.000
18.83000 290.000
18.87500 293.000
18.92000 306.000
18.96500 299.000
19.01000 311.000
19.05500 296.000
19.10000 297.000
19.14500 283.000
19.19000 273.000
19.23500 291.000
19.28000 297.000
19.32500 281.000
19.37000 291.000
19.41500 311.000
19.46000 296.000
19.50500 283.000
19.55000 280.000
19.59500 298.000
19.64000 285.000
19.68500 288.000
19.73000 299.000
19.77500 294.000
19.82000 296.000
19.86500 279.000
19.91000 332.000
19.95500 301.000
20.00000 295.000
20.04500 300.000
20.09000 329.000
20.13500 296.000
20.18000 295.000
20.22500 290.000
20.27000 294.000
20.31500 302.000
20.36000 332.000
20.40500 320.000
20.45000 317.000
20.49500 315.000
20.54000 335.000
20.58500 380.000
20.63000 370.000
20.67500 418.000
20.72000 476.000
20.76500 543.000
20.81000 590.000
20.85500 787.000
20.90000 863.000
20.94500 972.000
20.99000 914.000
21.03500 820.000
21.08000 658.000
21.12500 544.000
21.17000 486.000
21.21500 425.000
21.26000 426.000
21.30500 383.000
21.35000 360.000
21.39500 322.000
21.44000 326.000
21.48500 325.000
21.53000 317.000
21.57500 309.000
21.62000 315.000
21.66500 318.000
21.71000 326.000
21.75500 316.000
21.80000 322.000
21.84500 301.000
21.89000 297.000
21.93500 321.000
21.98000 305.000
22.02500 325.000
22.07000 307.000
22.11500 303.000
22.16000 314.000
22.20500 303.000
22.25000 299.000
22.29500 344.000
22.34000 306.000
22.38500 331.000
22.43000 327.000
22.47500 350.000
22.52000 299.000
22.56500 328.000
22.61000 301.000
22.65500 316.000
22.70000 303.000
22.74500 275.000
22.79000 338.000
22.83500 306.000
22.88000 311.000
22.92500 324.000
22.97000 305.000
23.01500 334.000
23.06000 287.000
23.10500 321.000
23.15000 317.000
23.19500 327.000
23.24000 279.000
23.28500 313.000
23.33000 311.000
23.37500 292.000
23.42000 315.000
23.46500 287.000
23.51000 306.000
23.55500 295.000
23.60000 310.000
23.64500 301.000
23.69000 312.000
23.73500 314.000
23.78000 296.000
23.82500 327.000
23.87000 333.000
23.91500 338.000
23.96000 328.000
24.00500 381.000
24.05000 426.000
24.09500 433.000
24.14000 489.000
24.18500 562.000
24.23000 603.000
24.27500 663.000
24.32000 602.000
24.36500 520.000
24.41000 476.000
24.45500 456.000
24.50000 416.000
24.54500 383.000
24.59000 395.000
24.63500 418.000
24.68000 437.000
24.72500 462.000
24.77000 489.000
24.81500 469.000
24.86000 485.000
24.90500 497.000
24.95000 464.000
24.99500 420.000
25.04000 404.000
25.08500 400.000
25.13000 347.000
25.17500 362.000
25.22000 337.000
25.26500 354.000
25.31000 347.000
25.35500 341.000
25.40000 315.000
25.44500 329.000
25.49000 328.000
25.53500 345.000
25.58000 343.000
25.62500 322.000
25.67000 335.000
25.71500 321.000
25.76000 316.000
25.80500 336.000
25.85000 352.000
25.89500 343.000
25.94000 386.000
25.98500 373.000
26.03000 423.000
26.07500 413.000
26.12000 417.000
26.16500 464.000
26.21000 552.000
26.25500 636.000
26.30000 727.000
26.34500 900.000
26.39000 1156.000
26.43500 1478.000
26.48000 1798.000
26.52500 2119.000
26.57000 2207.000
26.61500 1898.000
26.66000 1497.000
26.70500 1103.000
26.75000 851.000
26.79500 705.000
26.84000 677.000
26.88500 601.000
26.93000 486.000
26.97500 481.000
27.02000 446.000
27.06500 402.000
27.11000 412.000
27.15500 390.000
27.20000 394.000
27.24500 366.000
27.29000 363.000
27.33500 354.000
27.38000 347.000
27.42500 361.000
27.47000 351.000
27.51500 306.000
27.56000 347.000
27.60500 327.000
27.65000 345.000
27.69500 339.000
27.74000 344.000
27.78500 342.000
27.83000 355.000
27.87500 326.000
27.92000 319.000
27.96500 322.000
28.01000 316.000
28.05500 325.000
28.10000 336.000
28.14500 298.000
28.19000 322.000
28.23500 329.000
28.28000 335.000
28.32500 346.000
28.37000 313.000
28.41500 336.000
28.46000 333.000
28.50500 363.000
28.55000 347.000
28.59500 367.000
28.64000 381.000
28.68500 424.000
28.73000 443.000
28.77500 482.000
28.82000 509.000
28.86500 526.000
28.91000 599.000
28.95500 679.000
29.00000 752.000
29.04500 932.000
29.09000 1122.000
29.13500 1380.000
29.18000 1592.000
29.22500 1729.000
29.27000 1809.000
29.31500 1621.000
29.36000 1407.000
29.40500 1081.000
29.45000 848.000
29.49500 778.000
29.54000 617.000
29.58500 544.000
29.63000 492.000
29.67500 455.000
29.72000 442.000
29.76500 389.000
29.81000 375.000
29.85500 331.000
29.90000 342.000
29.94500 337.000
29.99000 322.000
30.03500 328.000
30.08000 312.000
30.12500 308.000
30.17000 279.000
30.21500 301.000
30.26000 324.000
30.30500 272.000
30.35000 294.000
30.39500 288.000
30.44000 314.000
30.48500 272.000
30.53000 263.000
30.57500 289.000
30.62000 282.000
30.66500 264.000
30.71000 256.000
30.75500 270.000
30.80000 258.000
30.84500 273.000
30.89000 287.000
30.93500 255.000
30.98000 248.000
31.02500 238.000
31.07000 273.000
31.11500 262.000
31.16000 256.000
31.20500 245.000
31.25000 261.000
31.29500 274.000
31.34000 236.000
31.38500 281.000
31.43000 268.000
31.47500 252.000
31.52000 268.000
31.56500 260.000
31.61000 270.000
31.65500 270.000
31.70000 283.000
31.74500 270.000
31.79000 263.000
31.83500 265.000
31.88000 270.000
31.92500 289.000
31.97000 326.000
32.01500 330.000
32.06000 397.000
32.10500 459.000
32.15000 562.000
32.19500 669.000
32.24000 705.000
32.28500 693.000
32.33000 675.000
32.37500 578.000
32.42000 491.000
32.46500 421.000
32.51000 381.000
32.55500 330.000
32.60000 298.000
32.64500 300.000
32.69000 275.000
32.73500 268.000
32.78000 241.000
32.82500 280.000
32.87000 236.000
32.91500 265.000
32.96000 242.000
33.00500 225.000
33.05000 254.000
33.09500 259.000
33.14000 224.000
33.18500 247.000
33.23000 229.000
33.27500 222.000
33.32000 237.000
33.36500 219.000
33.41000 238.000
33.45500 223.000
33.50000 220.000
33.54500 224.000
33.59000 226.000
33.63500 222.000
33.68000 248.000
33.72500 239.000
33.77000 234.000
33.81500 231.000
33.86000 232.000
33.90500 270.000
33.95000 235.000
33.99500 252.000
34.04000 289.000
34.08500 282.000
34.13000 245.000
34.17500 264.000
34.22000 269.000
34.26500 254.000
34.31000 230.000
34.35500 223.000
34.40000 219.000
34.44500 233.000
34.49000 221.000
34.53500 221.000
34.58000 229.000
34.62500 198.000
34.67000 248.000
34.71500 219.000
34.76000 223.000
34.80500 259.000
34.85000 232.000
34.89500 244.000
34.94000 260.000
34.98500 276.000
35.03000 243.000
35.07500 252.000
35.12000 219.000
35.16500 242.000
35.21000 207.000
35.25500 224.000
35.30000 197.000
35.34500 207.000
35.39000 194.000
35.43500 194.000
35.48000 200.000
35.52500 209.000
35.57000 207.000
35.61500 194.000
35.66000 196.000
35.70500 202.000
35.75000 211.000
35.79500 210.000
35.84000 208.000
35.88500 221.000
35.93000 213.000
35.97500 208.000
36.02000 217.000
36.06500 247.000
36.11000 234.000
36.15500 254.000
36.20000 272.000
36.24500 265.000
36.29000 243.000
36.33500 242.000
36.38000 235.000
36.42500 226.000
36.47000 222.000
36.51500 207.000
36.56000 213.000
36.60500 221.000
36.65000 198.000
36.69500 228.000
36.74000 208.000
36.78500 222.000
36.83000 197.000
36.87500 187.000
36.92000 190.000
36.96500 191.000
37.01000 179.000
37.05500 154.000
37.10000 186.000
37.14500 172.000
37.19000 163.000
37.23500 154.000
37.28000 178.000
37.32500 165.000
37.37000 170.000
37.41500 151.000
37.46000 175.000
37.50500 164.000
37.55000 166.000
37.59500 173.000
37.64000 164.000
37.68500 166.000
37.73000 189.000
37.77500 170.000
37.82000 151.000
37.86500 144.000
37.91000 169.000
37.95500 177.000
38.00000 168.000
38.04500 177.000
38.09000 145.000
38.13500 170.000
38.18000 164.000
38.22500 144.000
38.27000 148.000
38.31500 167.000
38.36000 171.000
38.40500 159.000
38.45000 157.000
38.49500 160.000
38.54000 155.000
38.58500 150.000
38.63000 150.000
38.67500 193.000
38.72000 166.000
38.76500 177.000
38.81000 173.000
38.85500 153.000
38.90000 156.000
38.94500 162.000
38.99000 148.000
39.03500 165.000
39.08000 162.000
39.12500 161.000
39.17000 137.000
39.21500 152.000
39.26000 137.000
39.30500 151.000
39.35000 159.000
39.39500 179.000
39.44000 151.000
39.48500 141.000
39.53000 150.000
39.57500 146.000
39.62000 162.000
39.66500 155.000
39.71000 172.000
39.75500 138.000
39.80000 149.000
39.84500 146.000
39.89000 149.000
39.93500 170.000
39.98000 163.000
40.02500 148.000
40.07000 154.000
40.11500 152.000
40.16000 148.000
40.20500 155.000
40.25000 161.000
40.29500 160.000
40.34000 156.000
40.38500 157.000
40.43000 168.000
40.47500 162.000
40.52000 143.000
40.56500 140.000
40.61000 158.000
40.65500 148.000
40.70000 162.000
40.74500 160.000
40.79000 150.000
40.83500 154.000
40.88000 153.000
40.92500 147.000
40.97000 164.000
41.01500 142.000
41.06000 157.000
41.10500 158.000
41.15000 138.000
41.19500 149.000
41.24000 154.000
41.28500 153.000
41.33000 150.000
41.37500 142.000
41.42000 162.000
41.46500 152.000
41.51000 155.000
41.55500 135.000
41.60000 140.000
41.64500 158.000
41.69000 156.000
41.73500 183.000
41.78000 175.000
41.82500 149.000
41.87000 157.000
41.91500 147.000
41.96000 153.000
42.00500 162.000
42.05000 157.000
42.09500 169.000
42.14000 178.000
42.18500 179.000
42.23000 155.000
42.27500 178.000
42.32000 181.000
42.36500 172.000
42.41000 211.000
42.45500 193.000
42.50000 176.000
42.54500 225.000
42.59000 225.000
42.63500 237.000
42.68000 285.000
42.72500 252.000
42.77000 238.000
42.81500 202.000
42.86000 178.000
42.90500 183.000
42.95000 164.000
42.99500 190.000
43.04000 166.000
43.08500 175.000
43.13000 170.000
43.17500 172.000
43.22000 155.000
43.26500 165.000
43.31000 157.000
43.35500 163.000
43.40000 175.000
43.44500 168.000
43.49000 156.000
43.53500 133.000
43.58000 143.000
43.62500 164.000
43.67000 160.000
43.71500 154.000
43.76000 152.000
43.80500 159.000
43.85000 158.000
43.89500 150.000
43.94000 161.000
43.98500 166.000
44.03000 168.000
44.07500 141.000
44.12000 192.000
44.16500 191.000
44.21000 168.000
44.25500 187.000
44.30000 188.000
44.34500 224.000
44.39000 232.000
44.43500 260.000
44.48000 296.000
44.52500 295.000
44.57000 269.000
44.61500 281.000
44.66000 278.000
44.70500 257.000
44.75000 258.000
44.79500 266.000
44.84000 251.000
44.88500 253.000
44.93000 243.000
44.97500 230.000
45.02000 221.000
45.06500 206.000
45.11000 179.000
45.15500 176.000
45.20000 183.000
45.24500 176.000
45.29000 168.000
45.33500 195.000
45.38000 188.000
45.42500 157.000
45.47000 173.000
45.51500 193.000
45.56000 184.000
45.60500 190.000
45.65000 179.000
45.69500 209.000
45.74000 196.000
45.78500 223.000
45.83000 238.000
45.87500 204.000
45.92000 220.000
45.96500 232.000
46.01000 236.000
46.05500 211.000
46.10000 173.000
46.14500 190.000
46.19000 179.000
46.23500 173.000
46.28000 192.000
46.32500 170.000
46.37000 211.000
46.41500 189.000
46.46000 201.000
46.50500 222.000
46.55000 217.000
46.59500 236.000
46.64000 224.000
46.68500 212.000
46.73000 184.000
46.77500 184.000
46.82000 174.000
46.86500 166.000
46.91000 151.000
46.95500 175.000
47.00000 138.000
47.04500 166.000
47.09000 156.000
47.13500 151.000
47.18000 138.000
47.22500 150.000
47.27000 138.000
47.31500 144.000
47.36000 143.000
47.40500 142.000
47.45000 137.000
47.49500 133.000
47.54000 134.000
47.58500 152.000
47.63000 126.000
47.67500 145.000
47.72000 143.000
47.76500 137.000
47.81000 127.000
47.85500 138.000
47.90000 139.000
47.94500 144.000
47.99000 126.000
48.03500 128.000
48.08000 136.000
48.12500 147.000
48.17000 139.000
48.21500 124.000
48.26000 129.000
48.30500 130.000
48.35000 136.000
48.39500 143.000
48.44000 129.000
48.48500 139.000
48.53000 136.000
48.57500 129.000
48.62000 135.000
48.66500 123.000
48.71000 135.000
48.75500 129.000
48.80000 136.000
48.84500 138.000
48.89000 138.000
48.93500 142.000
48.98000 135.000
49.02500 140.000
49.07000 130.000
49.11500 119.000
49.16000 122.000
49.20500 139.000
49.25000 136.000
49.29500 126.000
49.34000 133.000
49.38500 138.000
49.43000 159.000
49.47500 159.000
49.52000 144.000
49.56500 159.000
49.61000 170.000
49.65500 167.000
49.70000 161.000
49.74500 174.000
49.79000 154.000
49.83500 161.000
49.88000 150.000
49.92500 151.000
49.97000 149.000
50.01500 128.000
50.06000 141.000
50.10500 140.000
50.15000 138.000
50.19500 137.000
50.24000 147.000
50.28500 163.000
50.33000 176.000
50.37500 151.000
50.42000 176.000
50.46500 177.000
50.51000 191.000
50.55500 209.000
50.60000 223.000
50.64500 248.000
50.69000 262.000
50.73500 278.000
50.78000 254.000
50.82500 282.000
50.87000 344.000
50.91500 336.000
50.96000 342.000
51.00500 327.000
51.05000 321.000
51.09500 280.000
51.14000 254.000
51.18500 270.000
51.23000 229.000
51.27500 215.000
51.32000 217.000
51.36500 187.000
51.41000 213.000
51.45500 177.000
51.50000 162.000
51.54500 165.000
51.59000 152.000
51.63500 157.000
51.68000 157.000
51.72500 144.000
51.77000 160.000
51.81500 142.000
51.86000 135.000
51.90500 126.000
51.95000 123.000
51.99500 154.000
52.04000 131.000
52.08500 128.000
52.13000 132.000
52.17500 129.000
52.22000 139.000
52.26500 137.000
52.31000 138.000
52.35500 163.000
52.40000 147.000
52.44500 136.000
52.49000 153.000
52.53500 143.000
52.58000 152.000
52.62500 160.000
52.67000 143.000
52.71500 137.000
52.76000 134.000
52.80500 124.000
52.85000 144.000
52.89500 145.000
52.94000 123.000
52.98500 132.000
53.03000 141.000
53.07500 117.000
53.12000 139.000
53.16500 103.000
53.21000 108.000
53.25500 113.000
53.30000 107.000
53.34500 114.000
53.39000 125.000
53.43500 137.000
53.48000 118.000
53.52500 141.000
53.57000 125.000
53.61500 143.000
53.66000 131.000
53.70500 125.000
53.75000 143.000
53.79500 136.000
53.84000 128.000
53.88500 135.000
53.93000 148.000
53.97500 132.000
54.02000 140.000
54.06500 159.000
54.11000 165.000
54.15500 168.000
54.20000 168.000
54.24500 191.000
54.29000 207.000
54.33500 223.000
54.38000 257.000
54.42500 289.000
54.47000 269.000
54.51500 311.000
54.56000 297.000
54.60500 292.000
54.65000 308.000
54.69500 304.000
54.74000 262.000
54.78500 240.000
54.83000 221.000
54.87500 211.000
54.92000 187.000
54.96500 173.000
55.01000 149.000
55.05500 154.000
55.10000 160.000
55.14500 138.000
55.19000 130.000
55.23500 138.000
55.28000 133.000
55.32500 148.000
55.37000 132.000
55.41500 137.000
55.46000 149.000
55.50500 123.000
55.55000 113.000
55.59500 137.000
55.64000 116.000
55.68500 120.000
55.73000 128.000
55.77500 125.000
55.82000 126.000
55.86500 131.000
55.91000 115.000
55.95500 142.000
56.00000 138.000
56.04500 131.000
56.09000 123.000
56.13500 126.000
56.18000 125.000
56.22500 133.000
56.27000 113.000
56.31500 127.000
56.36000 110.000
56.40500 132.000
56.45000 123.000
56.49500 118.000
56.54000 111.000
56.58500 139.000
56.63000 107.000
56.67500 114.000
56.72000 118.000
56.76500 112.000
56.81000 116.000
56.85500 112.000
56.90000 120.000
56.94500 123.000
56.99000 115.000
57.03500 108.000
57.08000 128.000
57.12500 129.000
57.17000 118.000
57.21500 125.000
57.26000 122.000
57.30500 121.000
57.35000 102.000
57.39500 117.000
57.44000 135.000
57.48500 139.000
57.53000 122.000
57.57500 138.000
57.62000 129.000
57.66500 137.000
57.71000 118.000
57.75500 124.000
57.80000 127.000
57.84500 135.000
57.89000 127.000
57.93500 116.000
57.98000 112.000
58.02500 120.000
58.07000 109.000
58.11500 110.000
58.16000 113.000
58.20500 119.000
58.25000 126.000
58.29500 138.000
58.34000 123.000
58.38500 111.000
58.43000 117.000
58.47500 129.000
58.52000 114.000
58.56500 139.000
58.61000 128.000
58.65500 137.000
58.70000 118.000
58.74500 121.000
58.79000 121.000
58.83500 111.000
58.88000 136.000
58.92500 119.000
58.97000 136.000
59.01500 151.000
59.06000 133.000
59.10500 132.000
59.15000 140.000
59.19500 140.000
59.24000 140.000
59.28500 150.000
59.33000 142.000
59.37500 115.000
59.42000 131.000
59.46500 134.000
59.51000 143.000
59.55500 130.000
59.60000 138.000
59.64500 114.000
59.69000 117.000
59.73500 125.000
59.78000 141.000
59.82500 125.000
59.87000 120.000
59.91500 138.000
59.96000 140.000
60.00500 118.000
60.05000 131.000
60.09500 142.000
60.14000 138.000
60.18500 128.000
60.23000 133.000
60.27500 141.000
60.32000 129.000
60.36500 119.000
60.41000 129.000
60.45500 108.000
60.50000 125.000
60.54500 126.000
60.59000 130.000
60.63500 138.000
60.68000 134.000
60.72500 125.000
60.77000 115.000
60.81500 116.000
60.86000 146.000
60.90500 125.000
60.95000 124.000
60.99500 122.000
61.04000 119.000
61.08500 124.000
61.13000 136.000
61.17500 116.000
61.22000 120.000
61.26500 127.000
61.31000 115.000
61.35500 136.000
61.40000 120.000
61.44500 132.000
61.49000 135.000
61.53500 120.000
61.58000 122.000
61.62500 106.000
61.67000 138.000
61.71500 128.000
61.76000 110.000
61.80500 114.000
61.85000 130.000
61.89500 127.000
61.94000 118.000
61.98500 111.000