File: ISoD/xrd_data/HSC091_gew.xy
2.00000 1.000
2.04500 5.000
2.09000 4.000
2.13500 2.000
2.18000 2.000
2.22500 2.000
2.27000 3.000
2.31500 5.000
2.36000 5.000
2.40500 2.000
2.45000 2.000
2.49500 2.000
2.54000 3.000
2.58500 7.000
2.63000 5.000
2.67500 4.000
2.72000 5.000
2.76500 3.000
2.81000 1.000
2.85500 5.000
2.90000 5.000
2.94500 2.000
2.99000 3.000
3.03500 4.000
3.08000 5.000
3.12500 10.000
3.17000 32.000
3.21500 160.000
3.26000 352.000
3.30500 471.000
3.35000 478.000
3.39500 465.000
3.44000 467.000
3.48500 455.000
3.53000 434.000
3.57500 420.000
3.62000 420.000
3.66500 393.000
3.71000 397.000
3.75500 392.000
3.80000 354.000
3.84500 337.000
3.89000 338.000
3.93500 359.000
3.98000 347.000
4.02500 346.000
4.07000 346.000
4.11500 324.000
4.16000 335.000
4.20500 295.000
4.25000 300.000
4.29500 316.000
4.34000 312.000
4.38500 302.000
4.43000 300.000
4.47500 300.000
4.52000 291.000
4.56500 298.000
4.61000 266.000
4.65500 309.000
4.70000 257.000
4.74500 273.000
4.79000 270.000
4.83500 260.000
4.88000 278.000
4.92500 290.000
4.97000 275.000
5.01500 268.000
5.06000 265.000
5.10500 263.000
5.15000 265.000
5.19500 269.000
5.24000 268.000
5.28500 261.000
5.33000 256.000
5.37500 280.000
5.42000 256.000
5.46500 268.000
5.51000 239.000
5.55500 279.000
5.60000 265.000
5.64500 255.000
5.69000 270.000
5.73500 263.000
5.78000 245.000
5.82500 278.000
5.87000 265.000
5.91500 271.000
5.96000 277.000
6.00500 231.000
6.05000 246.000
6.09500 245.000
6.14000 264.000
6.18500 276.000
6.23000 264.000
6.27500 255.000
6.32000 277.000
6.36500 262.000
6.41000 229.000
6.45500 242.000
6.50000 284.000
6.54500 259.000
6.59000 269.000
6.63500 249.000
6.68000 275.000
6.72500 235.000
6.77000 285.000
6.81500 256.000
6.86000 269.000
6.90500 268.000
6.95000 256.000
6.99500 273.000
7.04000 270.000
7.08500 276.000
7.13000 285.000
7.17500 272.000
7.22000 282.000
7.26500 279.000
7.31000 266.000
7.35500 274.000
7.40000 286.000
7.44500 260.000
7.49000 285.000
7.53500 277.000
7.58000 299.000
7.62500 288.000
7.67000 277.000
7.71500 302.000
7.76000 291.000
7.80500 283.000
7.85000 285.000
7.89500 332.000
7.94000 332.000
7.98500 333.000
8.03000 332.000
8.07500 337.000
8.12000 362.000
8.16500 326.000
8.21000 328.000
8.25500 325.000
8.30000 345.000
8.34500 328.000
8.39000 316.000
8.43500 334.000
8.48000 304.000
8.52500 335.000
8.57000 320.000
8.61500 330.000
8.66000 311.000
8.70500 303.000
8.75000 293.000
8.79500 299.000
8.84000 322.000
8.88500 310.000
8.93000 306.000
8.97500 296.000
9.02000 293.000
9.06500 301.000
9.11000 294.000
9.15500 277.000
9.20000 303.000
9.24500 286.000
9.29000 325.000
9.33500 309.000
9.38000 278.000
9.42500 316.000
9.47000 318.000
9.51500 332.000
9.56000 266.000
9.60500 307.000
9.65000 309.000
9.69500 311.000
9.74000 292.000
9.78500 299.000
9.83000 314.000
9.87500 277.000
9.92000 320.000
9.96500 324.000
10.01000 293.000
10.05500 326.000
10.10000 319.000
10.14500 286.000
10.19000 289.000
10.23500 294.000
10.28000 299.000
10.32500 302.000
10.37000 272.000
10.41500 286.000
10.46000 303.000
10.50500 278.000
10.55000 296.000
10.59500 272.000
10.64000 283.000
10.68500 272.000
10.73000 260.000
10.77500 286.000
10.82000 294.000
10.86500 293.000
10.91000 296.000
10.95500 270.000
11.00000 289.000
11.04500 282.000
11.09000 284.000
11.13500 290.000
11.18000 286.000
11.22500 301.000
11.27000 286.000
11.31500 303.000
11.36000 292.000
11.40500 284.000
11.45000 283.000
11.49500 306.000
11.54000 308.000
11.58500 308.000
11.63000 285.000
11.67500 291.000
11.72000 294.000
11.76500 302.000
11.81000 285.000
11.85500 291.000
11.90000 285.000
11.94500 299.000
11.99000 298.000
12.03500 328.000
12.08000 301.000
12.12500 333.000
12.17000 336.000
12.21500 434.000
12.26000 451.000
12.30500 317.000
12.35000 299.000
12.39500 311.000
12.44000 315.000
12.48500 288.000
12.53000 310.000
12.57500 297.000
12.62000 301.000
12.66500 277.000
12.71000 289.000
12.75500 290.000
12.80000 281.000
12.84500 293.000
12.89000 297.000
12.93500 297.000
12.98000 296.000
13.02500 313.000
13.07000 292.000
13.11500 282.000
13.16000 316.000
13.20500 298.000
13.25000 311.000
13.29500 285.000
13.34000 324.000
13.38500 339.000
13.43000 357.000
13.47500 309.000
13.52000 305.000
13.56500 297.000
13.61000 321.000
13.65500 332.000
13.70000 324.000
13.74500 332.000
13.79000 331.000
13.83500 354.000
13.88000 324.000
13.92500 324.000
13.97000 329.000
14.01500 372.000
14.06000 334.000
14.10500 344.000
14.15000 363.000
14.19500 337.000
14.24000 322.000
14.28500 360.000
14.33000 308.000
14.37500 327.000
14.42000 333.000
14.46500 327.000
14.51000 328.000
14.55500 332.000
14.60000 338.000
14.64500 297.000
14.69000 337.000
14.73500 320.000
14.78000 342.000
14.82500 332.000
14.87000 326.000
14.91500 306.000
14.96000 321.000
15.00500 324.000
15.05000 298.000
15.09500 318.000
15.14000 332.000
15.18500 316.000
15.23000 329.000
15.27500 328.000
15.32000 340.000
15.36500 328.000
15.41000 310.000
15.45500 344.000
15.50000 322.000
15.54500 344.000
15.59000 344.000
15.63500 332.000
15.68000 307.000
15.72500 346.000
15.77000 343.000
15.81500 351.000
15.86000 338.000
15.90500 335.000
15.95000 298.000
15.99500 365.000
16.04000 332.000
16.08500 338.000
16.13000 342.000
16.17500 336.000
16.22000 334.000
16.26500 343.000
16.31000 353.000
16.35500 346.000
16.40000 357.000
16.44500 345.000
16.49000 379.000
16.53500 358.000
16.58000 343.000
16.62500 320.000
16.67000 333.000
16.71500 353.000
16.76000 365.000
16.80500 319.000
16.85000 344.000
16.89500 371.000
16.94000 322.000
16.98500 346.000
17.03000 339.000
17.07500 339.000
17.12000 338.000
17.16500 333.000
17.21000 344.000
17.25500 333.000
17.30000 344.000
17.34500 338.000
17.39000 347.000
17.43500 355.000
17.48000 334.000
17.52500 327.000
17.57000 330.000
17.61500 319.000
17.66000 320.000
17.70500 329.000
17.75000 357.000
17.79500 309.000
17.84000 317.000
17.88500 335.000
17.93000 323.000
17.97500 321.000
18.02000 303.000
18.06500 328.000
18.11000 321.000
18.15500 320.000
18.20000 292.000
18.24500 340.000
18.29000 326.000
18.33500 331.000
18.38000 324.000
18.42500 311.000
18.47000 320.000
18.51500 293.000
18.56000 291.000
18.60500 314.000
18.65000 285.000
18.69500 325.000
18.74000 334.000
18.78500 331.000
18.83000 299.000
18.87500 339.000
18.92000 298.000
18.96500 334.000
19.01000 323.000
19.05500 306.000
19.10000 297.000
19.14500 331.000
19.19000 321.000
19.23500 326.000
19.28000 347.000
19.32500 299.000
19.37000 322.000
19.41500 354.000
19.46000 344.000
19.50500 317.000
19.55000 311.000
19.59500 297.000
19.64000 362.000
19.68500 309.000
19.73000 351.000
19.77500 321.000
19.82000 324.000
19.86500 346.000
19.91000 303.000
19.95500 305.000
20.00000 334.000
20.04500 335.000
20.09000 309.000
20.13500 316.000
20.18000 371.000
20.22500 322.000
20.27000 332.000
20.31500 358.000
20.36000 335.000
20.40500 330.000
20.45000 342.000
20.49500 342.000
20.54000 339.000
20.58500 345.000
20.63000 338.000
20.67500 336.000
20.72000 309.000
20.76500 322.000
20.81000 327.000
20.85500 366.000
20.90000 345.000
20.94500 369.000
20.99000 361.000
21.03500 345.000
21.08000 359.000
21.12500 337.000
21.17000 368.000
21.21500 408.000
21.26000 392.000
21.30500 433.000
21.35000 432.000
21.39500 400.000
21.44000 390.000
21.48500 412.000
21.53000 346.000
21.57500 382.000
21.62000 361.000
21.66500 397.000
21.71000 354.000
21.75500 373.000
21.80000 380.000
21.84500 374.000
21.89000 402.000
21.93500 390.000
21.98000 366.000
22.02500 400.000
22.07000 369.000
22.11500 355.000
22.16000 378.000
22.20500 388.000
22.25000 362.000
22.29500 374.000
22.34000 368.000
22.38500 366.000
22.43000 378.000
22.47500 370.000
22.52000 375.000
22.56500 398.000
22.61000 381.000
22.65500 414.000
22.70000 380.000
22.74500 390.000
22.79000 389.000
22.83500 419.000
22.88000 387.000
22.92500 411.000
22.97000 416.000
23.01500 404.000
23.06000 396.000
23.10500 380.000
23.15000 402.000
23.19500 442.000
23.24000 433.000
23.28500 411.000
23.33000 436.000
23.37500 398.000
23.42000 397.000
23.46500 404.000
23.51000 429.000
23.55500 421.000
23.60000 462.000
23.64500 434.000
23.69000 444.000
23.73500 456.000
23.78000 426.000
23.82500 471.000
23.87000 440.000
23.91500 406.000
23.96000 413.000
24.00500 422.000
24.05000 427.000
24.09500 390.000
24.14000 429.000
24.18500 452.000
24.23000 460.000
24.27500 456.000
24.32000 431.000
24.36500 443.000
24.41000 440.000
24.45500 467.000
24.50000 451.000
24.54500 450.000
24.59000 427.000
24.63500 513.000
24.68000 469.000
24.72500 458.000
24.77000 445.000
24.81500 451.000
24.86000 477.000
24.90500 439.000
24.95000 458.000
24.99500 462.000
25.04000 468.000
25.08500 474.000
25.13000 473.000
25.17500 449.000
25.22000 475.000
25.26500 454.000
25.31000 486.000
25.35500 500.000
25.40000 471.000
25.44500 505.000
25.49000 490.000
25.53500 488.000
25.58000 475.000
25.62500 494.000
25.67000 488.000
25.71500 526.000
25.76000 593.000
25.80500 561.000
25.85000 508.000
25.89500 528.000
25.94000 501.000
25.98500 529.000
26.03000 513.000
26.07500 542.000
26.12000 526.000
26.16500 561.000
26.21000 569.000
26.25500 604.000
26.30000 619.000
26.34500 565.000
26.39000 570.000
26.43500 553.000
26.48000 545.000
26.52500 550.000
26.57000 580.000
26.61500 530.000
26.66000 625.000
26.70500 596.000
26.75000 646.000
26.79500 651.000
26.84000 661.000
26.88500 655.000
26.93000 711.000
26.97500 696.000
27.02000 693.000
27.06500 750.000
27.11000 780.000
27.15500 812.000
27.20000 843.000
27.24500 919.000
27.29000 951.000
27.33500 1042.000
27.38000 1052.000
27.42500 1129.000
27.47000 1261.000
27.51500 1344.000
27.56000 1406.000
27.60500 1564.000
27.65000 1629.000
27.69500 1835.000
27.74000 1964.000
27.78500 2057.000
27.83000 2056.000
27.87500 1944.000
27.92000 1771.000
27.96500 1601.000
28.01000 1523.000
28.05500 1326.000
28.10000 1140.000
28.14500 1051.000
28.19000 913.000
28.23500 852.000
28.28000 801.000
28.32500 713.000
28.37000 753.000
28.41500 679.000
28.46000 658.000
28.50500 603.000
28.55000 588.000
28.59500 578.000
28.64000 579.000
28.68500 545.000
28.73000 574.000
28.77500 573.000
28.82000 528.000
28.86500 525.000
28.91000 523.000
28.95500 490.000
29.00000 487.000
29.04500 554.000
29.09000 503.000
29.13500 542.000
29.18000 487.000
29.22500 501.000
29.27000 508.000
29.31500 486.000
29.36000 530.000
29.40500 641.000
29.45000 533.000
29.49500 496.000
29.54000 488.000
29.58500 504.000
29.63000 516.000
29.67500 494.000
29.72000 517.000
29.76500 526.000
29.81000 516.000
29.85500 487.000
29.90000 482.000
29.94500 470.000
29.99000 446.000
30.03500 432.000
30.08000 458.000
30.12500 459.000
30.17000 436.000
30.21500 445.000
30.26000 437.000
30.30500 431.000
30.35000 405.000
30.39500 415.000
30.44000 467.000
30.48500 443.000
30.53000 437.000
30.57500 456.000
30.62000 449.000
30.66500 509.000
30.71000 509.000
30.75500 513.000
30.80000 489.000
30.84500 506.000
30.89000 486.000
30.93500 492.000
30.98000 435.000
31.02500 448.000
31.07000 444.000
31.11500 403.000
31.16000 410.000
31.20500 409.000
31.25000 368.000
31.29500 376.000
31.34000 387.000
31.38500 391.000
31.43000 415.000
31.47500 384.000
31.52000 375.000
31.56500 382.000
31.61000 340.000
31.65500 411.000
31.70000 359.000
31.74500 361.000
31.79000 347.000
31.83500 365.000
31.88000 322.000
31.92500 373.000
31.97000 328.000
32.01500 348.000
32.06000 363.000
32.10500 350.000
32.15000 350.000
32.19500 329.000
32.24000 320.000
32.28500 367.000
32.33000 338.000
32.37500 367.000
32.42000 387.000
32.46500 371.000
32.51000 375.000
32.55500 353.000
32.60000 349.000
32.64500 349.000
32.69000 327.000
32.73500 383.000
32.78000 333.000
32.82500 334.000
32.87000 334.000
32.91500 327.000
32.96000 331.000
33.00500 296.000
33.05000 312.000
33.09500 329.000
33.14000 312.000
33.18500 307.000
33.23000 303.000
33.27500 306.000
33.32000 296.000
33.36500 302.000
33.41000 298.000
33.45500 300.000
33.50000 314.000
33.54500 274.000
33.59000 319.000
33.63500 299.000
33.68000 314.000
33.72500 298.000
33.77000 290.000
33.81500 295.000
33.86000 292.000
33.90500 311.000
33.95000 301.000
33.99500 307.000
34.04000 262.000
34.08500 263.000
34.13000 275.000
34.17500 285.000
34.22000 267.000
34.26500 285.000
34.31000 296.000
34.35500 281.000
34.40000 285.000
34.44500 262.000
34.49000 264.000
34.53500 286.000
34.58000 295.000
34.62500 278.000
34.67000 269.000
34.71500 261.000
34.76000 293.000
34.80500 276.000
34.85000 259.000
34.89500 274.000
34.94000 281.000
34.98500 267.000
35.03000 276.000
35.07500 290.000
35.12000 299.000
35.16500 297.000
35.21000 293.000
35.25500 314.000
35.30000 294.000
35.34500 306.000
35.39000 329.000
35.43500 323.000
35.48000 303.000
35.52500 327.000
35.57000 338.000
35.61500 322.000
35.66000 336.000
35.70500 351.000
35.75000 341.000
35.79500 333.000
35.84000 303.000
35.88500 325.000
35.93000 320.000
35.97500 353.000
36.02000 307.000
36.06500 315.000
36.11000 295.000
36.15500 305.000
36.20000 297.000
36.24500 290.000
36.29000 290.000
36.33500 300.000
36.38000 296.000
36.42500 294.000
36.47000 299.000
36.51500 294.000
36.56000 284.000
36.60500 300.000
36.65000 288.000
36.69500 293.000
36.74000 287.000
36.78500 295.000
36.83000 299.000
36.87500 276.000
36.92000 277.000
36.96500 300.000
37.01000 310.000
37.05500 321.000
37.10000 310.000
37.14500 334.000
37.19000 294.000
37.23500 302.000
37.28000 300.000
37.32500 296.000
37.37000 297.000
37.41500 300.000
37.46000 322.000
37.50500 290.000
37.55000 288.000
37.59500 282.000
37.64000 294.000
37.68500 277.000
37.73000 286.000
37.77500 300.000
37.82000 294.000
37.86500 283.000
37.91000 260.000
37.95500 271.000
38.00000 286.000
38.04500 274.000
38.09000 238.000
38.13500 241.000
38.18000 254.000
38.22500 286.000
38.27000 251.000
38.31500 270.000
38.36000 224.000
38.40500 264.000
38.45000 274.000
38.49500 276.000
38.54000 254.000
38.58500 262.000
38.63000 242.000
38.67500 234.000
38.72000 240.000
38.76500 243.000
38.81000 263.000
38.85500 260.000
38.90000 285.000
38.94500 269.000
38.99000 249.000
39.03500 251.000
39.08000 262.000
39.12500 275.000
39.17000 268.000
39.21500 238.000
39.26000 272.000
39.30500 289.000
39.35000 250.000
39.39500 280.000
39.44000 264.000
39.48500 253.000
39.53000 242.000
39.57500 254.000
39.62000 266.000
39.66500 227.000
39.71000 253.000
39.75500 250.000
39.80000 248.000
39.84500 263.000
39.89000 259.000
39.93500 268.000
39.98000 247.000
40.02500 258.000
40.07000 234.000
40.11500 242.000
40.16000 246.000
40.20500 263.000
40.25000 265.000
40.29500 281.000
40.34000 263.000
40.38500 292.000
40.43000 265.000
40.47500 269.000
40.52000 253.000
40.56500 252.000
40.61000 260.000
40.65500 266.000
40.70000 255.000
40.74500 229.000
40.79000 242.000
40.83500 237.000
40.88000 261.000
40.92500 246.000
40.97000 255.000
41.01500 251.000
41.06000 249.000
41.10500 251.000
41.15000 236.000
41.19500 249.000
41.24000 241.000
41.28500 256.000
41.33000 219.000
41.37500 240.000
41.42000 238.000
41.46500 224.000
41.51000 243.000
41.55500 241.000
41.60000 248.000
41.64500 239.000
41.69000 257.000
41.73500 234.000
41.78000 240.000
41.82500 219.000
41.87000 242.000
41.91500 226.000
41.96000 222.000
42.00500 233.000
42.05000 226.000
42.09500 217.000
42.14000 213.000
42.18500 216.000
42.23000 246.000
42.27500 236.000
42.32000 219.000
42.36500 197.000
42.41000 217.000
42.45500 216.000
42.50000 250.000
42.54500 238.000
42.59000 245.000
42.63500 232.000
42.68000 239.000
42.72500 221.000
42.77000 239.000
42.81500 245.000
42.86000 258.000
42.90500 273.000
42.95000 251.000
42.99500 254.000
43.04000 253.000
43.08500 254.000
43.13000 274.000
43.17500 273.000
43.22000 276.000
43.26500 295.000
43.31000 270.000
43.35500 276.000
43.40000 273.000
43.44500 274.000
43.49000 264.000
43.53500 278.000
43.58000 282.000
43.62500 282.000
43.67000 290.000
43.71500 232.000
43.76000 259.000
43.80500 264.000
43.85000 244.000
43.89500 250.000
43.94000 239.000
43.98500 241.000
44.03000 245.000
44.07500 255.000
44.12000 256.000
44.16500 258.000
44.21000 257.000
44.25500 248.000
44.30000 260.000
44.34500 252.000
44.39000 263.000
44.43500 261.000
44.48000 251.000
44.52500 255.000
44.57000 285.000
44.61500 241.000
44.66000 253.000
44.70500 237.000
44.75000 249.000
44.79500 229.000
44.84000 250.000
44.88500 251.000
44.93000 262.000
44.97500 234.000
45.02000 243.000
45.06500 249.000
45.11000 261.000
45.15500 241.000
45.20000 228.000
45.24500 221.000
45.29000 230.000
45.33500 241.000
45.38000 247.000
45.42500 234.000
45.47000 253.000
45.51500 235.000
45.56000 230.000
45.60500 208.000
45.65000 253.000
45.69500 212.000
45.74000 218.000
45.78500 233.000
45.83000 244.000
45.87500 247.000
45.92000 224.000
45.96500 227.000
46.01000 232.000
46.05500 225.000
46.10000 213.000
46.14500 216.000
46.19000 212.000
46.23500 194.000
46.28000 216.000
46.32500 219.000
46.37000 197.000
46.41500 216.000
46.46000 220.000
46.50500 210.000
46.55000 225.000
46.59500 223.000
46.64000 215.000
46.68500 208.000
46.73000 222.000
46.77500 242.000
46.82000 221.000
46.86500 204.000
46.91000 213.000
46.95500 202.000
47.00000 186.000
47.04500 188.000
47.09000 213.000
47.13500 202.000
47.18000 213.000
47.22500 213.000
47.27000 200.000
47.31500 197.000
47.36000 218.000
47.40500 197.000
47.45000 178.000
47.49500 188.000
47.54000 214.000
47.58500 196.000
47.63000 212.000
47.67500 190.000
47.72000 192.000
47.76500 203.000
47.81000 176.000
47.85500 189.000
47.90000 215.000
47.94500 206.000
47.99000 202.000
48.03500 212.000
48.08000 186.000
48.12500 211.000
48.17000 196.000
48.21500 196.000
48.26000 193.000
48.30500 173.000
48.35000 193.000
48.39500 199.000
48.44000 181.000
48.48500 208.000
48.53000 210.000
48.57500 203.000
48.62000 210.000
48.66500 216.000
48.71000 201.000
48.75500 192.000
48.80000 180.000
48.84500 198.000
48.89000 181.000
48.93500 182.000
48.98000 202.000
49.02500 177.000
49.07000 191.000
49.11500 207.000
49.16000 194.000
49.20500 198.000
49.25000 179.000
49.29500 185.000
49.34000 194.000
49.38500 207.000
49.43000 179.000
49.47500 195.000
49.52000 178.000
49.56500 159.000
49.61000 172.000
49.65500 165.000
49.70000 219.000
49.74500 164.000
49.79000 180.000
49.83500 196.000
49.88000 186.000
49.92500 183.000
49.97000 180.000
50.01500 191.000
50.06000 179.000
50.10500 189.000
50.15000 211.000
50.19500 191.000
50.24000 204.000
50.28500 191.000
50.33000 187.000
50.37500 208.000
50.42000 191.000
50.46500 180.000
50.51000 191.000
50.55500 187.000
50.60000 199.000
50.64500 165.000
50.69000 202.000
50.73500 189.000
50.78000 220.000
50.82500 191.000
50.87000 172.000
50.91500 189.000
50.96000 194.000
51.00500 190.000
51.05000 179.000
51.09500 194.000
51.14000 195.000
51.18500 189.000
51.23000 186.000
51.27500 202.000
51.32000 186.000
51.36500 176.000
51.41000 201.000
51.45500 194.000
51.50000 187.000
51.54500 188.000
51.59000 183.000
51.63500 185.000
51.68000 203.000
51.72500 199.000
51.77000 185.000
51.81500 190.000
51.86000 182.000
51.90500 220.000
51.95000 181.000
51.99500 219.000
52.04000 192.000
52.08500 183.000
52.13000 193.000
52.17500 192.000
52.22000 170.000
52.26500 191.000
52.31000 190.000
52.35500 190.000
52.40000 195.000
52.44500 197.000
52.49000 164.000
52.53500 192.000
52.58000 198.000
52.62500 162.000
52.67000 214.000
52.71500 150.000
52.76000 189.000
52.80500 188.000
52.85000 181.000
52.89500 192.000
52.94000 187.000
52.98500 194.000
53.03000 170.000
53.07500 171.000
53.12000 173.000
53.16500 196.000
53.21000 179.000
53.25500 190.000
53.30000 179.000
53.34500 173.000
53.39000 163.000
53.43500 172.000
53.48000 183.000
53.52500 181.000
53.57000 174.000
53.61500 163.000
53.66000 202.000
53.70500 193.000
53.75000 188.000
53.79500 195.000
53.84000 174.000
53.88500 210.000
53.93000 205.000
53.97500 184.000
54.02000 186.000
54.06500 189.000
54.11000 185.000
54.15500 169.000
54.20000 187.000
54.24500 193.000
54.29000 184.000
54.33500 184.000
54.38000 168.000
54.42500 187.000
54.47000 177.000
54.51500 199.000
54.56000 172.000
54.60500 167.000
54.65000 185.000
54.69500 198.000
54.74000 193.000
54.78500 170.000
54.83000 158.000
54.87500 195.000
54.92000 174.000
54.96500 190.000
55.01000 185.000
55.05500 172.000
55.10000 182.000
55.14500 177.000
55.19000 204.000
55.23500 177.000
55.28000 171.000
55.32500 196.000
55.37000 160.000
55.41500 175.000
55.46000 173.000
55.50500 158.000
55.55000 184.000
55.59500 162.000
55.64000 159.000
55.68500 182.000
55.73000 161.000
55.77500 169.000
55.82000 163.000
55.86500 164.000
55.91000 161.000
55.95500 173.000
56.00000 155.000
56.04500 169.000
56.09000 168.000
56.13500 177.000
56.18000 177.000
56.22500 188.000
56.27000 168.000
56.31500 190.000
56.36000 165.000
56.40500 202.000
56.45000 169.000
56.49500 183.000
56.54000 188.000
56.58500 196.000
56.63000 178.000
56.67500 193.000
56.72000 178.000
56.76500 187.000
56.81000 185.000
56.85500 191.000
56.90000 180.000
56.94500 196.000
56.99000 191.000
57.03500 171.000
57.08000 178.000
57.12500 177.000
57.17000 179.000
57.21500 192.000
57.26000 206.000
57.30500 185.000
57.35000 175.000
57.39500 190.000
57.44000 212.000
57.48500 181.000
57.53000 207.000
57.57500 181.000
57.62000 204.000
57.66500 186.000
57.71000 196.000
57.75500 177.000
57.80000 187.000
57.84500 195.000
57.89000 216.000
57.93500 176.000
57.98000 194.000
58.02500 200.000
58.07000 182.000
58.11500 163.000
58.16000 177.000
58.20500 182.000
58.25000 176.000
58.29500 184.000
58.34000 165.000
58.38500 182.000
58.43000 177.000
58.47500 171.000
58.52000 159.000
58.56500 176.000
58.61000 167.000
58.65500 172.000
58.70000 188.000
58.74500 167.000
58.79000 162.000
58.83500 160.000
58.88000 162.000
58.92500 146.000
58.97000 159.000
59.01500 163.000
59.06000 163.000
59.10500 163.000
59.15000 157.000
59.19500 158.000
59.24000 189.000
59.28500 162.000
59.33000 147.000
59.37500 138.000
59.42000 173.000
59.46500 171.000
59.51000 152.000
59.55500 174.000
59.60000 158.000
59.64500 162.000
59.69000 163.000
59.73500 142.000
59.78000 157.000
59.82500 160.000
59.87000 154.000
59.91500 166.000
59.96000 148.000
60.00500 154.000
60.05000 149.000
60.09500 152.000
60.14000 147.000
60.18500 151.000
60.23000 154.000
60.27500 159.000
60.32000 170.000
60.36500 167.000
60.41000 158.000
60.45500 140.000
60.50000 143.000
60.54500 148.000
60.59000 154.000
60.63500 157.000
60.68000 164.000
60.72500 164.000
60.77000 159.000
60.81500 163.000
60.86000 169.000
60.90500 175.000
60.95000 171.000
60.99500 148.000
61.04000 151.000
61.08500 158.000
61.13000 157.000
61.17500 157.000
61.22000 156.000
61.26500 153.000
61.31000 159.000
61.35500 153.000
61.40000 153.000
61.44500 142.000
61.49000 161.000
61.53500 143.000
61.58000 145.000
61.62500 153.000
61.67000 152.000
61.71500 166.000
61.76000 163.000
61.80500 156.000
61.85000 140.000
61.89500 131.000
61.94000 158.000
61.98500 174.000