File: ISoD/xrd_data/HSC033.xy
2.00000 4.000
2.04500 6.000
2.09000 1.000
2.13500 4.000
2.18000 3.000
2.22500 2.000
2.27000 2.000
2.31500 1.000
2.36000 2.000
2.40500 0.000
2.45000 2.000
2.49500 0.000
2.54000 1.000
2.58500 2.000
2.63000 2.000
2.67500 1.000
2.72000 3.000
2.76500 1.000
2.81000 1.000
2.85500 7.000
2.90000 9.000
2.94500 21.000
2.99000 27.000
3.03500 130.000
3.08000 289.000
3.12500 389.000
3.17000 377.000
3.21500 383.000
3.26000 385.000
3.30500 386.000
3.35000 390.000
3.39500 345.000
3.44000 361.000
3.48500 339.000
3.53000 361.000
3.57500 362.000
3.62000 324.000
3.66500 343.000
3.71000 318.000
3.75500 328.000
3.80000 326.000
3.84500 319.000
3.89000 316.000
3.93500 349.000
3.98000 340.000
4.02500 302.000
4.07000 297.000
4.11500 288.000
4.16000 322.000
4.20500 293.000
4.25000 328.000
4.29500 308.000
4.34000 282.000
4.38500 289.000
4.43000 315.000
4.47500 286.000
4.52000 300.000
4.56500 270.000
4.61000 285.000
4.65500 286.000
4.70000 310.000
4.74500 285.000
4.79000 265.000
4.83500 279.000
4.88000 303.000
4.92500 301.000
4.97000 304.000
5.01500 286.000
5.06000 288.000
5.10500 292.000
5.15000 289.000
5.19500 273.000
5.24000 299.000
5.28500 307.000
5.33000 270.000
5.37500 309.000
5.42000 312.000
5.46500 292.000
5.51000 301.000
5.55500 282.000
5.60000 311.000
5.64500 292.000
5.69000 284.000
5.73500 278.000
5.78000 304.000
5.82500 286.000
5.87000 309.000
5.91500 310.000
5.96000 296.000
6.00500 286.000
6.05000 292.000
6.09500 275.000
6.14000 301.000
6.18500 281.000
6.23000 300.000
6.27500 309.000
6.32000 315.000
6.36500 290.000
6.41000 303.000
6.45500 305.000
6.50000 303.000
6.54500 289.000
6.59000 285.000
6.63500 303.000
6.68000 317.000
6.72500 286.000
6.77000 308.000
6.81500 300.000
6.86000 311.000
6.90500 288.000
6.95000 295.000
6.99500 318.000
7.04000 284.000
7.08500 313.000
7.13000 307.000
7.17500 313.000
7.22000 300.000
7.26500 338.000
7.31000 308.000
7.35500 310.000
7.40000 291.000
7.44500 315.000
7.49000 307.000
7.53500 305.000
7.58000 319.000
7.62500 312.000
7.67000 331.000
7.71500 338.000
7.76000 324.000
7.80500 309.000
7.85000 317.000
7.89500 323.000
7.94000 311.000
7.98500 325.000
8.03000 308.000
8.07500 310.000
8.12000 338.000
8.16500 335.000
8.21000 338.000
8.25500 326.000
8.30000 358.000
8.34500 362.000
8.39000 344.000
8.43500 339.000
8.48000 344.000
8.52500 397.000
8.57000 380.000
8.61500 358.000
8.66000 367.000
8.70500 362.000
8.75000 323.000
8.79500 316.000
8.84000 318.000
8.88500 319.000
8.93000 307.000
8.97500 315.000
9.02000 317.000
9.06500 286.000
9.11000 305.000
9.15500 308.000
9.20000 322.000
9.24500 295.000
9.29000 311.000
9.33500 309.000
9.38000 316.000
9.42500 288.000
9.47000 309.000
9.51500 306.000
9.56000 313.000
9.60500 333.000
9.65000 330.000
9.69500 323.000
9.74000 332.000
9.78500 308.000
9.83000 341.000
9.87500 304.000
9.92000 326.000
9.96500 351.000
10.01000 355.000
10.05500 367.000
10.10000 354.000
10.14500 322.000
10.19000 324.000
10.23500 318.000
10.28000 314.000
10.32500 325.000
10.37000 306.000
10.41500 301.000
10.46000 303.000
10.50500 303.000
10.55000 319.000
10.59500 312.000
10.64000 310.000
10.68500 314.000
10.73000 302.000
10.77500 335.000
10.82000 347.000
10.86500 353.000
10.91000 320.000
10.95500 296.000
11.00000 332.000
11.04500 345.000
11.09000 351.000
11.13500 377.000
11.18000 357.000
11.22500 376.000
11.27000 383.000
11.31500 384.000
11.36000 393.000
11.40500 481.000
11.45000 425.000
11.49500 474.000
11.54000 506.000
11.58500 496.000
11.63000 508.000
11.67500 503.000
11.72000 497.000
11.76500 505.000
11.81000 485.000
11.85500 464.000
11.90000 428.000
11.94500 381.000
11.99000 402.000
12.03500 324.000
12.08000 315.000
12.12500 304.000
12.17000 295.000
12.21500 285.000
12.26000 266.000
12.30500 284.000
12.35000 276.000
12.39500 254.000
12.44000 267.000
12.48500 256.000
12.53000 250.000
12.57500 269.000
12.62000 250.000
12.66500 278.000
12.71000 287.000
12.75500 276.000
12.80000 283.000
12.84500 285.000
12.89000 271.000
12.93500 287.000
12.98000 310.000
13.02500 282.000
13.07000 292.000
13.11500 294.000
13.16000 269.000
13.20500 272.000
13.25000 254.000
13.29500 254.000
13.34000 274.000
13.38500 250.000
13.43000 260.000
13.47500 246.000
13.52000 273.000
13.56500 272.000
13.61000 237.000
13.65500 258.000
13.70000 272.000
13.74500 256.000
13.79000 255.000
13.83500 234.000
13.88000 261.000
13.92500 254.000
13.97000 246.000
14.01500 229.000
14.06000 263.000
14.10500 251.000
14.15000 243.000
14.19500 243.000
14.24000 241.000
14.28500 268.000
14.33000 249.000
14.37500 257.000
14.42000 225.000
14.46500 261.000
14.51000 276.000
14.55500 250.000
14.60000 234.000
14.64500 265.000
14.69000 234.000
14.73500 253.000
14.78000 231.000
14.82500 248.000
14.87000 243.000
14.91500 249.000
14.96000 240.000
15.00500 255.000
15.05000 236.000
15.09500 249.000
15.14000 233.000
15.18500 272.000
15.23000 255.000
15.27500 251.000
15.32000 238.000
15.36500 246.000
15.41000 232.000
15.45500 235.000
15.50000 234.000
15.54500 218.000
15.59000 257.000
15.63500 256.000
15.68000 268.000
15.72500 263.000
15.77000 252.000
15.81500 261.000
15.86000 238.000
15.90500 227.000
15.95000 255.000
15.99500 244.000
16.04000 285.000
16.08500 235.000
16.13000 250.000
16.17500 259.000
16.22000 274.000
16.26500 265.000
16.31000 269.000
16.35500 247.000
16.40000 252.000
16.44500 265.000
16.49000 247.000
16.53500 234.000
16.58000 225.000
16.62500 233.000
16.67000 274.000
16.71500 264.000
16.76000 268.000
16.80500 241.000
16.85000 247.000
16.89500 218.000
16.94000 230.000
16.98500 250.000
17.03000 263.000
17.07500 233.000
17.12000 232.000
17.16500 242.000
17.21000 254.000
17.25500 247.000
17.30000 235.000
17.34500 229.000
17.39000 249.000
17.43500 238.000
17.48000 246.000
17.52500 243.000
17.57000 242.000
17.61500 228.000
17.66000 228.000
17.70500 230.000
17.75000 238.000
17.79500 219.000
17.84000 252.000
17.88500 256.000
17.93000 239.000
17.97500 259.000
18.02000 227.000
18.06500 239.000
18.11000 236.000
18.15500 248.000
18.20000 246.000
18.24500 230.000
18.29000 241.000
18.33500 247.000
18.38000 256.000
18.42500 261.000
18.47000 261.000
18.51500 232.000
18.56000 266.000
18.60500 245.000
18.65000 262.000
18.69500 259.000
18.74000 264.000
18.78500 244.000
18.83000 285.000
18.87500 237.000
18.92000 244.000
18.96500 252.000
19.01000 237.000
19.05500 254.000
19.10000 276.000
19.14500 253.000
19.19000 266.000
19.23500 288.000
19.28000 257.000
19.32500 279.000
19.37000 256.000
19.41500 258.000
19.46000 267.000
19.50500 283.000
19.55000 255.000
19.59500 285.000
19.64000 261.000
19.68500 264.000
19.73000 268.000
19.77500 271.000
19.82000 291.000
19.86500 250.000
19.91000 241.000
19.95500 267.000
20.00000 281.000
20.04500 272.000
20.09000 258.000
20.13500 269.000
20.18000 245.000
20.22500 245.000
20.27000 281.000
20.31500 241.000
20.36000 252.000
20.40500 268.000
20.45000 233.000
20.49500 276.000
20.54000 270.000
20.58500 257.000
20.63000 253.000
20.67500 270.000
20.72000 257.000
20.76500 252.000
20.81000 248.000
20.85500 275.000
20.90000 268.000
20.94500 253.000
20.99000 293.000
21.03500 273.000
21.08000 261.000
21.12500 280.000
21.17000 256.000
21.21500 269.000
21.26000 270.000
21.30500 264.000
21.35000 257.000
21.39500 267.000
21.44000 267.000
21.48500 276.000
21.53000 279.000
21.57500 278.000
21.62000 266.000
21.66500 261.000
21.71000 266.000
21.75500 279.000
21.80000 268.000
21.84500 293.000
21.89000 254.000
21.93500 273.000
21.98000 286.000
22.02500 283.000
22.07000 292.000
22.11500 276.000
22.16000 265.000
22.20500 308.000
22.25000 287.000
22.29500 265.000
22.34000 264.000
22.38500 318.000
22.43000 301.000
22.47500 265.000
22.52000 297.000
22.56500 298.000
22.61000 275.000
22.65500 278.000
22.70000 256.000
22.74500 281.000
22.79000 302.000
22.83500 318.000
22.88000 286.000
22.92500 325.000
22.97000 282.000
23.01500 314.000
23.06000 266.000
23.10500 285.000
23.15000 319.000
23.19500 305.000
23.24000 320.000
23.28500 301.000
23.33000 313.000
23.37500 302.000
23.42000 326.000
23.46500 316.000
23.51000 326.000
23.55500 306.000
23.60000 301.000
23.64500 318.000
23.69000 317.000
23.73500 322.000
23.78000 320.000
23.82500 306.000
23.87000 336.000
23.91500 327.000
23.96000 324.000
24.00500 332.000
24.05000 329.000
24.09500 345.000
24.14000 310.000
24.18500 317.000
24.23000 313.000
24.27500 351.000
24.32000 337.000
24.36500 337.000
24.41000 351.000
24.45500 363.000
24.50000 355.000
24.54500 333.000
24.59000 355.000
24.63500 348.000
24.68000 396.000
24.72500 400.000
24.77000 380.000
24.81500 382.000
24.86000 399.000
24.90500 429.000
24.95000 437.000
24.99500 482.000
25.04000 475.000
25.08500 507.000
25.13000 499.000
25.17500 512.000
25.22000 498.000
25.26500 496.000
25.31000 501.000
25.35500 546.000
25.40000 515.000
25.44500 549.000
25.49000 555.000
25.53500 577.000
25.58000 597.000
25.62500 592.000
25.67000 571.000
25.71500 540.000
25.76000 548.000
25.80500 581.000
25.85000 540.000
25.89500 526.000
25.94000 575.000
25.98500 531.000
26.03000 509.000
26.07500 591.000
26.12000 568.000
26.16500 570.000
26.21000 604.000
26.25500 602.000
26.30000 574.000
26.34500 567.000
26.39000 588.000
26.43500 579.000
26.48000 604.000
26.52500 597.000
26.57000 610.000
26.61500 618.000
26.66000 592.000
26.70500 597.000
26.75000 594.000
26.79500 569.000
26.84000 590.000
26.88500 616.000
26.93000 597.000
26.97500 637.000
27.02000 607.000
27.06500 660.000
27.11000 681.000
27.15500 746.000
27.20000 650.000
27.24500 666.000
27.29000 653.000
27.33500 630.000
27.38000 601.000
27.42500 588.000
27.47000 568.000
27.51500 551.000
27.56000 545.000
27.60500 472.000
27.65000 460.000
27.69500 416.000
27.74000 400.000
27.78500 394.000
27.83000 366.000
27.87500 398.000
27.92000 391.000
27.96500 343.000
28.01000 341.000
28.05500 343.000
28.10000 303.000
28.14500 302.000
28.19000 318.000
28.23500 322.000
28.28000 313.000
28.32500 320.000
28.37000 274.000
28.41500 303.000
28.46000 272.000
28.50500 266.000
28.55000 275.000
28.59500 277.000
28.64000 247.000
28.68500 246.000
28.73000 252.000
28.77500 252.000
28.82000 266.000
28.86500 265.000
28.91000 253.000
28.95500 234.000
29.00000 260.000
29.04500 241.000
29.09000 237.000
29.13500 211.000
29.18000 270.000
29.22500 251.000
29.27000 235.000
29.31500 253.000
29.36000 235.000
29.40500 245.000
29.45000 236.000
29.49500 229.000
29.54000 248.000
29.58500 258.000
29.63000 233.000
29.67500 230.000
29.72000 229.000
29.76500 225.000
29.81000 220.000
29.85500 225.000
29.90000 219.000
29.94500 237.000
29.99000 226.000
30.03500 237.000
30.08000 225.000
30.12500 243.000
30.17000 240.000
30.21500 245.000
30.26000 252.000
30.30500 272.000
30.35000 282.000
30.39500 262.000
30.44000 253.000
30.48500 254.000
30.53000 240.000
30.57500 253.000
30.62000 242.000
30.66500 219.000
30.71000 230.000
30.75500 237.000
30.80000 230.000
30.84500 222.000
30.89000 227.000
30.93500 221.000
30.98000 202.000
31.02500 239.000
31.07000 226.000
31.11500 221.000
31.16000 228.000
31.20500 208.000
31.25000 240.000
31.29500 200.000
31.34000 200.000
31.38500 194.000
31.43000 210.000
31.47500 190.000
31.52000 207.000
31.56500 188.000
31.61000 189.000
31.65500 182.000
31.70000 211.000
31.74500 190.000
31.79000 198.000
31.83500 195.000
31.88000 174.000
31.92500 184.000
31.97000 192.000
32.01500 188.000
32.06000 194.000
32.10500 196.000
32.15000 192.000
32.19500 174.000
32.24000 193.000
32.28500 174.000
32.33000 180.000
32.37500 187.000
32.42000 191.000
32.46500 187.000
32.51000 196.000
32.55500 193.000
32.60000 193.000
32.64500 183.000
32.69000 175.000
32.73500 189.000
32.78000 195.000
32.82500 178.000
32.87000 171.000
32.91500 190.000
32.96000 174.000
33.00500 180.000
33.05000 183.000
33.09500 160.000
33.14000 162.000
33.18500 163.000
33.23000 179.000
33.27500 171.000
33.32000 166.000
33.36500 174.000
33.41000 171.000
33.45500 167.000
33.50000 153.000
33.54500 175.000
33.59000 171.000
33.63500 176.000
33.68000 169.000
33.72500 165.000
33.77000 172.000
33.81500 178.000
33.86000 170.000
33.90500 194.000
33.95000 148.000
33.99500 186.000
34.04000 175.000
34.08500 167.000
34.13000 175.000
34.17500 170.000
34.22000 166.000
34.26500 147.000
34.31000 165.000
34.35500 168.000
34.40000 167.000
34.44500 165.000
34.49000 165.000
34.53500 155.000
34.58000 167.000
34.62500 164.000
34.67000 156.000
34.71500 169.000
34.76000 163.000
34.80500 141.000
34.85000 154.000
34.89500 150.000
34.94000 146.000
34.98500 139.000
35.03000 134.000
35.07500 155.000
35.12000 158.000
35.16500 152.000
35.21000 142.000
35.25500 135.000
35.30000 150.000
35.34500 147.000
35.39000 157.000
35.43500 157.000
35.48000 137.000
35.52500 166.000
35.57000 155.000
35.61500 151.000
35.66000 138.000
35.70500 135.000
35.75000 136.000
35.79500 157.000
35.84000 145.000
35.88500 137.000
35.93000 133.000
35.97500 140.000
36.02000 125.000
36.06500 132.000
36.11000 144.000
36.15500 118.000
36.20000 160.000
36.24500 137.000
36.29000 142.000
36.33500 158.000
36.38000 144.000
36.42500 134.000
36.47000 117.000
36.51500 136.000
36.56000 156.000
36.60500 128.000
36.65000 143.000
36.69500 147.000
36.74000 146.000
36.78500 147.000
36.83000 122.000
36.87500 133.000
36.92000 131.000
36.96500 136.000
37.01000 132.000
37.05500 136.000
37.10000 136.000
37.14500 130.000
37.19000 140.000
37.23500 117.000
37.28000 133.000
37.32500 143.000
37.37000 130.000
37.41500 138.000
37.46000 137.000
37.50500 126.000
37.55000 124.000
37.59500 140.000
37.64000 128.000
37.68500 133.000
37.73000 113.000
37.77500 121.000
37.82000 129.000
37.86500 119.000
37.91000 123.000
37.95500 136.000
38.00000 130.000
38.04500 128.000
38.09000 138.000
38.13500 138.000
38.18000 127.000
38.22500 127.000
38.27000 122.000
38.31500 138.000
38.36000 115.000
38.40500 107.000
38.45000 129.000
38.49500 123.000
38.54000 140.000
38.58500 133.000
38.63000 129.000
38.67500 119.000
38.72000 133.000
38.76500 143.000
38.81000 126.000
38.85500 141.000
38.90000 117.000
38.94500 130.000
38.99000 132.000
39.03500 144.000
39.08000 125.000
39.12500 131.000
39.17000 130.000
39.21500 129.000
39.26000 148.000
39.30500 136.000
39.35000 122.000
39.39500 122.000
39.44000 126.000
39.48500 139.000
39.53000 129.000
39.57500 142.000
39.62000 127.000
39.66500 130.000
39.71000 117.000
39.75500 134.000
39.80000 119.000
39.84500 131.000
39.89000 120.000
39.93500 138.000
39.98000 128.000
40.02500 129.000
40.07000 138.000
40.11500 135.000
40.16000 131.000
40.20500 140.000
40.25000 140.000
40.29500 137.000
40.34000 121.000
40.38500 126.000
40.43000 139.000
40.47500 132.000
40.52000 139.000
40.56500 143.000
40.61000 136.000
40.65500 146.000
40.70000 109.000
40.74500 146.000
40.79000 127.000
40.83500 123.000
40.88000 127.000
40.92500 139.000
40.97000 135.000
41.01500 143.000
41.06000 127.000
41.10500 150.000
41.15000 143.000
41.19500 151.000
41.24000 130.000
41.28500 138.000
41.33000 129.000
41.37500 142.000
41.42000 139.000
41.46500 130.000
41.51000 125.000
41.55500 139.000
41.60000 130.000
41.64500 119.000
41.69000 135.000
41.73500 124.000
41.78000 126.000
41.82500 117.000
41.87000 127.000
41.91500 132.000
41.96000 124.000
42.00500 127.000
42.05000 132.000
42.09500 125.000
42.14000 144.000
42.18500 130.000
42.23000 156.000
42.27500 117.000
42.32000 134.000
42.36500 143.000
42.41000 135.000
42.45500 143.000
42.50000 123.000
42.54500 116.000
42.59000 125.000
42.63500 143.000
42.68000 131.000
42.72500 140.000
42.77000 136.000
42.81500 143.000
42.86000 110.000
42.90500 119.000
42.95000 126.000
42.99500 127.000
43.04000 123.000
43.08500 124.000
43.13000 117.000
43.17500 122.000
43.22000 135.000
43.26500 112.000
43.31000 117.000
43.35500 120.000
43.40000 135.000
43.44500 122.000
43.49000 141.000
43.53500 131.000
43.58000 131.000
43.62500 112.000
43.67000 125.000
43.71500 120.000
43.76000 134.000
43.80500 136.000
43.85000 130.000
43.89500 117.000
43.94000 123.000
43.98500 120.000
44.03000 139.000
44.07500 124.000
44.12000 112.000
44.16500 122.000
44.21000 134.000
44.25500 148.000
44.30000 121.000
44.34500 126.000
44.39000 131.000
44.43500 117.000
44.48000 133.000
44.52500 121.000
44.57000 137.000
44.61500 137.000
44.66000 132.000
44.70500 128.000
44.75000 126.000
44.79500 106.000
44.84000 132.000
44.88500 121.000
44.93000 146.000
44.97500 127.000
45.02000 117.000
45.06500 122.000
45.11000 123.000
45.15500 122.000
45.20000 122.000
45.24500 117.000
45.29000 138.000
45.33500 136.000
45.38000 121.000
45.42500 138.000
45.47000 128.000
45.51500 131.000
45.56000 124.000
45.60500 129.000
45.65000 131.000
45.69500 120.000
45.74000 119.000
45.78500 120.000
45.83000 124.000
45.87500 108.000
45.92000 124.000
45.96500 126.000
46.01000 115.000
46.05500 117.000
46.10000 113.000
46.14500 138.000
46.19000 136.000
46.23500 126.000
46.28000 124.000
46.32500 116.000
46.37000 114.000
46.41500 117.000
46.46000 113.000
46.50500 117.000
46.55000 112.000
46.59500 111.000
46.64000 113.000
46.68500 118.000
46.73000 108.000
46.77500 132.000
46.82000 123.000
46.86500 121.000
46.91000 113.000
46.95500 111.000
47.00000 109.000
47.04500 112.000
47.09000 117.000
47.13500 112.000
47.18000 116.000
47.22500 102.000
47.27000 117.000
47.31500 124.000
47.36000 110.000
47.40500 105.000
47.45000 97.000
47.49500 96.000
47.54000 108.000
47.58500 110.000
47.63000 119.000
47.67500 118.000
47.72000 113.000
47.76500 115.000
47.81000 111.000
47.85500 118.000
47.90000 107.000
47.94500 95.000
47.99000 108.000
48.03500 128.000
48.08000 103.000
48.12500 103.000
48.17000 120.000
48.21500 113.000
48.26000 108.000
48.30500 102.000
48.35000 84.000
48.39500 108.000
48.44000 110.000
48.48500 103.000
48.53000 106.000
48.57500 103.000
48.62000 99.000
48.66500 124.000
48.71000 103.000
48.75500 97.000
48.80000 111.000
48.84500 88.000
48.89000 95.000
48.93500 112.000
48.98000 111.000
49.02500 98.000
49.07000 101.000
49.11500 111.000
49.16000 118.000
49.20500 107.000
49.25000 100.000
49.29500 99.000
49.34000 110.000
49.38500 112.000
49.43000 106.000
49.47500 100.000
49.52000 96.000
49.56500 92.000
49.61000 104.000
49.65500 102.000
49.70000 106.000
49.74500 108.000
49.79000 106.000
49.83500 94.000
49.88000 97.000
49.92500 93.000
49.97000 98.000
50.01500 91.000
50.06000 114.000
50.10500 101.000
50.15000 99.000
50.19500 97.000
50.24000 90.000
50.28500 105.000
50.33000 98.000
50.37500 107.000
50.42000 97.000
50.46500 105.000
50.51000 96.000
50.55500 93.000
50.60000 91.000
50.64500 100.000
50.69000 89.000
50.73500 85.000
50.78000 105.000
50.82500 100.000
50.87000 102.000
50.91500 90.000
50.96000 85.000
51.00500 99.000
51.05000 110.000
51.09500 92.000
51.14000 110.000
51.18500 100.000
51.23000 101.000
51.27500 113.000
51.32000 100.000
51.36500 103.000
51.41000 106.000
51.45500 105.000
51.50000 107.000
51.54500 104.000
51.59000 98.000
51.63500 107.000
51.68000 97.000
51.72500 89.000
51.77000 106.000
51.81500 83.000
51.86000 93.000
51.90500 106.000
51.95000 94.000
51.99500 95.000
52.04000 86.000
52.08500 91.000
52.13000 106.000
52.17500 87.000
52.22000 117.000
52.26500 86.000
52.31000 97.000
52.35500 95.000
52.40000 88.000
52.44500 84.000
52.49000 89.000
52.53500 92.000
52.58000 88.000
52.62500 91.000
52.67000 95.000
52.71500 100.000
52.76000 98.000
52.80500 115.000
52.85000 101.000
52.89500 104.000
52.94000 106.000
52.98500 83.000
53.03000 98.000
53.07500 97.000
53.12000 95.000
53.16500 102.000
53.21000 92.000
53.25500 101.000
53.30000 106.000
53.34500 90.000
53.39000 117.000
53.43500 99.000
53.48000 97.000
53.52500 112.000
53.57000 90.000
53.61500 80.000
53.66000 108.000
53.70500 116.000
53.75000 102.000
53.79500 93.000
53.84000 108.000
53.88500 107.000
53.93000 96.000
53.97500 98.000
54.02000 101.000
54.06500 98.000
54.11000 101.000
54.15500 87.000
54.20000 89.000
54.24500 94.000
54.29000 102.000
54.33500 100.000
54.38000 93.000
54.42500 103.000
54.47000 97.000
54.51500 104.000
54.56000 103.000
54.60500 90.000
54.65000 94.000
54.69500 97.000
54.74000 84.000
54.78500 92.000
54.83000 97.000
54.87500 107.000
54.92000 87.000
54.96500 110.000
55.01000 101.000
55.05500 104.000
55.10000 110.000
55.14500 96.000
55.19000 108.000
55.23500 85.000
55.28000 77.000
55.32500 85.000
55.37000 97.000
55.41500 96.000
55.46000 100.000
55.50500 75.000
55.55000 96.000
55.59500 99.000
55.64000 89.000
55.68500 93.000
55.73000 99.000
55.77500 106.000
55.82000 84.000
55.86500 84.000
55.91000 89.000
55.95500 84.000
56.00000 89.000
56.04500 84.000
56.09000 100.000
56.13500 82.000
56.18000 90.000
56.22500 101.000
56.27000 86.000
56.31500 83.000
56.36000 88.000
56.40500 96.000
56.45000 84.000
56.49500 104.000
56.54000 90.000
56.58500 90.000
56.63000 83.000
56.67500 80.000
56.72000 88.000
56.76500 83.000
56.81000 82.000
56.85500 97.000
56.90000 83.000
56.94500 89.000
56.99000 82.000
57.03500 89.000
57.08000 88.000
57.12500 94.000
57.17000 74.000
57.21500 85.000
57.26000 93.000
57.30500 84.000
57.35000 82.000
57.39500 89.000
57.44000 90.000
57.48500 99.000
57.53000 96.000
57.57500 71.000
57.62000 81.000
57.66500 76.000
57.71000 83.000
57.75500 83.000
57.80000 87.000
57.84500 90.000
57.89000 81.000
57.93500 96.000
57.98000 77.000
58.02500 86.000
58.07000 94.000
58.11500 96.000
58.16000 81.000
58.20500 88.000
58.25000 91.000
58.29500 88.000
58.34000 97.000
58.38500 83.000
58.43000 76.000
58.47500 82.000
58.52000 81.000
58.56500 83.000
58.61000 79.000
58.65500 75.000
58.70000 87.000
58.74500 89.000
58.79000 68.000
58.83500 87.000
58.88000 73.000
58.92500 76.000
58.97000 83.000
59.01500 83.000
59.06000 90.000
59.10500 85.000
59.15000 79.000
59.19500 85.000
59.24000 76.000
59.28500 87.000
59.33000 84.000
59.37500 79.000
59.42000 89.000
59.46500 82.000
59.51000 84.000
59.55500 87.000
59.60000 85.000
59.64500 82.000
59.69000 82.000
59.73500 76.000
59.78000 83.000
59.82500 84.000
59.87000 69.000
59.91500 76.000
59.96000 79.000
60.00500 87.000
60.05000 88.000
60.09500 78.000
60.14000 80.000
60.18500 80.000
60.23000 86.000
60.27500 79.000
60.32000 75.000
60.36500 78.000
60.41000 63.000
60.45500 75.000
60.50000 80.000
60.54500 73.000
60.59000 68.000
60.63500 71.000
60.68000 67.000
60.72500 84.000
60.77000 80.000
60.81500 86.000
60.86000 68.000
60.90500 83.000
60.95000 67.000
60.99500 82.000
61.04000 72.000
61.08500 89.000
61.13000 75.000
61.17500 74.000
61.22000 88.000
61.26500 72.000
61.31000 79.000
61.35500 84.000
61.40000 68.000
61.44500 78.000
61.49000 63.000
61.53500 83.000
61.58000 77.000
61.62500 73.000
61.67000 73.000
61.71500 68.000
61.76000 86.000
61.80500 76.000
61.85000 77.000
61.89500 70.000
61.94000 74.000
61.98500 85.000