File: ISoD/xrd_data/HSC018.xy
2.00000 3.000
2.04500 3.000
2.09000 3.000
2.13500 3.000
2.18000 1.000
2.22500 3.000
2.27000 3.000
2.31500 2.000
2.36000 0.000
2.40500 1.000
2.45000 1.000
2.49500 7.000
2.54000 12.000
2.58500 45.000
2.63000 64.000
2.67500 87.000
2.72000 94.000
2.76500 90.000
2.81000 93.000
2.85500 78.000
2.90000 82.000
2.94500 84.000
2.99000 83.000
3.03500 90.000
3.08000 94.000
3.12500 88.000
3.17000 100.000
3.21500 83.000
3.26000 94.000
3.30500 99.000
3.35000 101.000
3.39500 99.000
3.44000 85.000
3.48500 77.000
3.53000 92.000
3.57500 83.000
3.62000 96.000
3.66500 94.000
3.71000 79.000
3.75500 94.000
3.80000 86.000
3.84500 118.000
3.89000 84.000
3.93500 103.000
3.98000 97.000
4.02500 102.000
4.07000 94.000
4.11500 108.000
4.16000 104.000
4.20500 108.000
4.25000 96.000
4.29500 104.000
4.34000 114.000
4.38500 93.000
4.43000 96.000
4.47500 105.000
4.52000 96.000
4.56500 99.000
4.61000 112.000
4.65500 123.000
4.70000 98.000
4.74500 98.000
4.79000 114.000
4.83500 95.000
4.88000 106.000
4.92500 101.000
4.97000 97.000
5.01500 107.000
5.06000 109.000
5.10500 106.000
5.15000 102.000
5.19500 135.000
5.24000 118.000
5.28500 110.000
5.33000 116.000
5.37500 122.000
5.42000 116.000
5.46500 83.000
5.51000 120.000
5.55500 113.000
5.60000 112.000
5.64500 116.000
5.69000 104.000
5.73500 113.000
5.78000 102.000
5.82500 116.000
5.87000 116.000
5.91500 100.000
5.96000 114.000
6.00500 112.000
6.05000 110.000
6.09500 121.000
6.14000 126.000
6.18500 124.000
6.23000 114.000
6.27500 119.000
6.32000 122.000
6.36500 103.000
6.41000 126.000
6.45500 138.000
6.50000 115.000
6.54500 114.000
6.59000 121.000
6.63500 134.000
6.68000 115.000
6.72500 119.000
6.77000 115.000
6.81500 116.000
6.86000 109.000
6.90500 114.000
6.95000 120.000
6.99500 124.000
7.04000 132.000
7.08500 101.000
7.13000 115.000
7.17500 121.000
7.22000 115.000
7.26500 119.000
7.31000 116.000
7.35500 123.000
7.40000 115.000
7.44500 115.000
7.49000 135.000
7.53500 131.000
7.58000 122.000
7.62500 114.000
7.67000 138.000
7.71500 117.000
7.76000 116.000
7.80500 121.000
7.85000 130.000
7.89500 142.000
7.94000 116.000
7.98500 116.000
8.03000 135.000
8.07500 109.000
8.12000 136.000
8.16500 118.000
8.21000 125.000
8.25500 113.000
8.30000 120.000
8.34500 135.000
8.39000 120.000
8.43500 129.000
8.48000 125.000
8.52500 122.000
8.57000 122.000
8.61500 124.000
8.66000 125.000
8.70500 130.000
8.75000 119.000
8.79500 142.000
8.84000 120.000
8.88500 133.000
8.93000 129.000
8.97500 133.000
9.02000 117.000
9.06500 129.000
9.11000 130.000
9.15500 132.000
9.20000 144.000
9.24500 135.000
9.29000 136.000
9.33500 112.000
9.38000 121.000
9.42500 114.000
9.47000 133.000
9.51500 121.000
9.56000 123.000
9.60500 119.000
9.65000 133.000
9.69500 130.000
9.74000 130.000
9.78500 141.000
9.83000 128.000
9.87500 148.000
9.92000 143.000
9.96500 172.000
10.01000 232.000
10.05500 168.000
10.10000 140.000
10.14500 148.000
10.19000 158.000
10.23500 172.000
10.28000 241.000
10.32500 299.000
10.37000 137.000
10.41500 131.000
10.46000 118.000
10.50500 124.000
10.55000 123.000
10.59500 121.000
10.64000 126.000
10.68500 107.000
10.73000 130.000
10.77500 115.000
10.82000 130.000
10.86500 110.000
10.91000 114.000
10.95500 134.000
11.00000 122.000
11.04500 108.000
11.09000 127.000
11.13500 147.000
11.18000 124.000
11.22500 125.000
11.27000 137.000
11.31500 133.000
11.36000 125.000
11.40500 125.000
11.45000 105.000
11.49500 131.000
11.54000 127.000
11.58500 132.000
11.63000 125.000
11.67500 132.000
11.72000 119.000
11.76500 122.000
11.81000 128.000
11.85500 151.000
11.90000 136.000
11.94500 157.000
11.99000 162.000
12.03500 238.000
12.08000 174.000
12.12500 146.000
12.17000 129.000
12.21500 139.000
12.26000 135.000
12.30500 128.000
12.35000 131.000
12.39500 134.000
12.44000 113.000
12.48500 138.000
12.53000 108.000
12.57500 111.000
12.62000 126.000
12.66500 130.000
12.71000 124.000
12.75500 135.000
12.80000 136.000
12.84500 144.000
12.89000 118.000
12.93500 126.000
12.98000 131.000
13.02500 138.000
13.07000 138.000
13.11500 125.000
13.16000 138.000
13.20500 144.000
13.25000 176.000
13.29500 217.000
13.34000 291.000
13.38500 485.000
13.43000 1062.000
13.47500 797.000
13.52000 214.000
13.56500 169.000
13.61000 151.000
13.65500 125.000
13.70000 129.000
13.74500 119.000
13.79000 128.000
13.83500 125.000
13.88000 140.000
13.92500 137.000
13.97000 137.000
14.01500 120.000
14.06000 132.000
14.10500 135.000
14.15000 119.000
14.19500 131.000
14.24000 137.000
14.28500 128.000
14.33000 126.000
14.37500 125.000
14.42000 120.000
14.46500 120.000
14.51000 120.000
14.55500 116.000
14.60000 135.000
14.64500 121.000
14.69000 128.000
14.73500 138.000
14.78000 123.000
14.82500 133.000
14.87000 121.000
14.91500 130.000
14.96000 124.000
15.00500 131.000
15.05000 137.000
15.09500 127.000
15.14000 135.000
15.18500 128.000
15.23000 119.000
15.27500 130.000
15.32000 129.000
15.36500 139.000
15.41000 126.000
15.45500 124.000
15.50000 117.000
15.54500 132.000
15.59000 129.000
15.63500 119.000
15.68000 140.000
15.72500 137.000
15.77000 137.000
15.81500 148.000
15.86000 174.000
15.90500 223.000
15.95000 206.000
15.99500 159.000
16.04000 155.000
16.08500 150.000
16.13000 130.000
16.17500 165.000
16.22000 144.000
16.26500 121.000
16.31000 126.000
16.35500 140.000
16.40000 121.000
16.44500 122.000
16.49000 151.000
16.53500 149.000
16.58000 121.000
16.62500 135.000
16.67000 130.000
16.71500 121.000
16.76000 129.000
16.80500 127.000
16.85000 152.000
16.89500 129.000
16.94000 137.000
16.98500 141.000
17.03000 140.000
17.07500 143.000
17.12000 132.000
17.16500 136.000
17.21000 139.000
17.25500 133.000
17.30000 128.000
17.34500 132.000
17.39000 144.000
17.43500 138.000
17.48000 119.000
17.52500 140.000
17.57000 141.000
17.61500 136.000
17.66000 161.000
17.70500 240.000
17.75000 412.000
17.79500 166.000
17.84000 156.000
17.88500 148.000
17.93000 199.000
17.97500 331.000
18.02000 259.000
18.06500 137.000
18.11000 155.000
18.15500 186.000
18.20000 220.000
18.24500 375.000
18.29000 577.000
18.33500 248.000
18.38000 160.000
18.42500 140.000
18.47000 135.000
18.51500 137.000
18.56000 139.000
18.60500 124.000
18.65000 124.000
18.69500 137.000
18.74000 120.000
18.78500 146.000
18.83000 151.000
18.87500 140.000
18.92000 142.000
18.96500 125.000
19.01000 155.000
19.05500 137.000
19.10000 146.000
19.14500 142.000
19.19000 131.000
19.23500 143.000
19.28000 132.000
19.32500 137.000
19.37000 132.000
19.41500 145.000
19.46000 129.000
19.50500 127.000
19.55000 137.000
19.59500 125.000
19.64000 138.000
19.68500 152.000
19.73000 136.000
19.77500 118.000
19.82000 136.000
19.86500 144.000
19.91000 137.000
19.95500 139.000
20.00000 143.000
20.04500 163.000
20.09000 227.000
20.13500 256.000
20.18000 164.000
20.22500 157.000
20.27000 135.000
20.31500 139.000
20.36000 138.000
20.40500 122.000
20.45000 147.000
20.49500 150.000
20.54000 153.000
20.58500 154.000
20.63000 183.000
20.67500 208.000
20.72000 327.000
20.76500 178.000
20.81000 148.000
20.85500 157.000
20.90000 143.000
20.94500 158.000
20.99000 160.000
21.03500 136.000
21.08000 148.000
21.12500 149.000
21.17000 154.000
21.21500 153.000
21.26000 149.000
21.30500 165.000
21.35000 157.000
21.39500 145.000
21.44000 131.000
21.48500 138.000
21.53000 148.000
21.57500 176.000
21.62000 146.000
21.66500 208.000
21.71000 249.000
21.75500 369.000
21.80000 359.000
21.84500 274.000
21.89000 222.000
21.93500 300.000
21.98000 499.000
22.02500 932.000
22.07000 459.000
22.11500 207.000
22.16000 181.000
22.20500 168.000
22.25000 153.000
22.29500 161.000
22.34000 163.000
22.38500 194.000
22.43000 250.000
22.47500 322.000
22.52000 169.000
22.56500 155.000
22.61000 147.000
22.65500 145.000
22.70000 142.000
22.74500 168.000
22.79000 155.000
22.83500 175.000
22.88000 151.000
22.92500 150.000
22.97000 170.000
23.01500 148.000
23.06000 159.000
23.10500 157.000
23.15000 164.000
23.19500 232.000
23.24000 353.000
23.28500 294.000
23.33000 164.000
23.37500 150.000
23.42000 159.000
23.46500 171.000
23.51000 186.000
23.55500 260.000
23.60000 497.000
23.64500 519.000
23.69000 229.000
23.73500 169.000
23.78000 184.000
23.82500 192.000
23.87000 172.000
23.91500 171.000
23.96000 162.000
24.00500 182.000
24.05000 201.000
24.09500 235.000
24.14000 350.000
24.18500 659.000
24.23000 1127.000
24.27500 537.000
24.32000 265.000
24.36500 203.000
24.41000 200.000
24.45500 186.000
24.50000 166.000
24.54500 151.000
24.59000 183.000
24.63500 182.000
24.68000 179.000
24.72500 173.000
24.77000 162.000
24.81500 180.000
24.86000 207.000
24.90500 307.000
24.95000 620.000
24.99500 1428.000
25.04000 985.000
25.08500 325.000
25.13000 211.000
25.17500 193.000
25.22000 143.000
25.26500 180.000
25.31000 171.000
25.35500 165.000
25.40000 179.000
25.44500 204.000
25.49000 307.000
25.53500 552.000
25.58000 463.000
25.62500 293.000
25.67000 352.000
25.71500 490.000
25.76000 353.000
25.80500 315.000
25.85000 209.000
25.89500 185.000
25.94000 176.000
25.98500 168.000
26.03000 158.000
26.07500 157.000
26.12000 157.000
26.16500 168.000
26.21000 164.000
26.25500 185.000
26.30000 206.000
26.34500 252.000
26.39000 359.000
26.43500 382.000
26.48000 509.000
26.52500 996.000
26.57000 1840.000
26.61500 835.000
26.66000 344.000
26.70500 265.000
26.75000 266.000
26.79500 342.000
26.84000 680.000
26.88500 1503.000
26.93000 2282.000
26.97500 1205.000
27.02000 1772.000
27.06500 4301.000
27.11000 5172.000
27.15500 2018.000
27.20000 653.000
27.24500 390.000
27.29000 284.000
27.33500 238.000
27.38000 235.000
27.42500 223.000
27.47000 175.000
27.51500 176.000
27.56000 179.000
27.60500 155.000
27.65000 170.000
27.69500 171.000
27.74000 186.000
27.78500 191.000
27.83000 182.000
27.87500 151.000
27.92000 190.000
27.96500 264.000
28.01000 436.000
28.05500 241.000
28.10000 185.000
28.14500 173.000
28.19000 168.000
28.23500 176.000
28.28000 190.000
28.32500 181.000
28.37000 186.000
28.41500 242.000
28.46000 269.000
28.50500 346.000
28.55000 740.000
28.59500 702.000
28.64000 335.000
28.68500 251.000
28.73000 224.000
28.77500 249.000
28.82000 249.000
28.86500 261.000
28.91000 280.000
28.95500 223.000
29.00000 188.000
29.04500 172.000
29.09000 204.000
29.13500 219.000
29.18000 392.000
29.22500 832.000
29.27000 800.000
29.31500 279.000
29.36000 219.000
29.40500 228.000
29.45000 275.000
29.49500 308.000
29.54000 204.000
29.58500 180.000
29.63000 199.000
29.67500 166.000
29.72000 187.000
29.76500 207.000
29.81000 295.000
29.85500 214.000
29.90000 230.000
29.94500 329.000
29.99000 370.000
30.03500 475.000
30.08000 490.000
30.12500 479.000
30.17000 478.000
30.21500 298.000
30.26000 233.000
30.30500 255.000
30.35000 410.000
30.39500 457.000
30.44000 236.000
30.48500 198.000
30.53000 185.000
30.57500 266.000
30.62000 401.000
30.66500 732.000
30.71000 693.000
30.75500 621.000
30.80000 671.000
30.84500 927.000
30.89000 840.000
30.93500 561.000
30.98000 313.000
31.02500 270.000
31.07000 400.000
31.11500 711.000
31.16000 686.000
31.20500 522.000
31.25000 864.000
31.29500 1384.000
31.34000 1325.000
31.38500 662.000
31.43000 347.000
31.47500 300.000
31.52000 276.000
31.56500 244.000
31.61000 212.000
31.65500 197.000
31.70000 204.000
31.74500 250.000
31.79000 255.000
31.83500 200.000
31.88000 194.000
31.92500 179.000
31.97000 197.000
32.01500 278.000
32.06000 417.000
32.10500 956.000
32.15000 2119.000
32.19500 1754.000
32.24000 632.000
32.28500 351.000
32.33000 358.000
32.37500 568.000
32.42000 1293.000
32.46500 1764.000
32.51000 1682.000
32.55500 733.000
32.60000 290.000
32.64500 235.000
32.69000 262.000
32.73500 276.000
32.78000 328.000
32.82500 689.000
32.87000 518.000
32.91500 260.000
32.96000 182.000
33.00500 191.000
33.05000 193.000
33.09500 160.000
33.14000 173.000
33.18500 164.000
33.23000 126.000
33.27500 158.000
33.32000 150.000
33.36500 146.000
33.41000 212.000
33.45500 303.000
33.50000 198.000
33.54500 166.000
33.59000 181.000
33.63500 209.000
33.68000 281.000
33.72500 446.000
33.77000 815.000
33.81500 677.000
33.86000 454.000
33.90500 420.000
33.95000 320.000
33.99500 226.000
34.04000 194.000
34.08500 241.000
34.13000 220.000
34.17500 217.000
34.22000 345.000
34.26500 625.000
34.31000 480.000
34.35500 273.000
34.40000 216.000
34.44500 224.000
34.49000 323.000
34.53500 506.000
34.58000 362.000
34.62500 211.000
34.67000 174.000
34.71500 149.000
34.76000 156.000
34.80500 183.000
34.85000 224.000
34.89500 264.000
34.94000 271.000
34.98500 213.000
35.03000 154.000
35.07500 150.000
35.12000 132.000
35.16500 156.000
35.21000 211.000
35.25500 310.000
35.30000 271.000
35.34500 153.000
35.39000 145.000
35.43500 127.000
35.48000 124.000
35.52500 153.000
35.57000 125.000
35.61500 153.000
35.66000 163.000
35.70500 259.000
35.75000 209.000
35.79500 147.000
35.84000 190.000
35.88500 248.000
35.93000 331.000
35.97500 205.000
36.02000 155.000
36.06500 148.000
36.11000 196.000
36.15500 295.000
36.20000 263.000
36.24500 154.000
36.29000 146.000
36.33500 146.000
36.38000 147.000
36.42500 196.000
36.47000 208.000
36.51500 151.000
36.56000 158.000
36.60500 118.000
36.65000 124.000
36.69500 147.000
36.74000 141.000
36.78500 127.000
36.83000 146.000
36.87500 161.000
36.92000 243.000
36.96500 327.000
37.01000 521.000
37.05500 991.000
37.10000 639.000
37.14500 261.000
37.19000 229.000
37.23500 314.000
37.28000 526.000
37.32500 594.000
37.37000 436.000
37.41500 405.000
37.46000 285.000
37.50500 255.000
37.55000 204.000
37.59500 194.000
37.64000 266.000
37.68500 486.000
37.73000 583.000
37.77500 301.000
37.82000 231.000
37.86500 187.000
37.91000 155.000
37.95500 168.000
38.00000 264.000
38.04500 475.000
38.09000 682.000
38.13500 402.000
38.18000 252.000
38.22500 247.000
38.27000 281.000
38.31500 244.000
38.36000 192.000
38.40500 207.000
38.45000 261.000
38.49500 531.000
38.54000 956.000
38.58500 499.000
38.63000 205.000
38.67500 175.000
38.72000 209.000
38.76500 326.000
38.81000 284.000
38.85500 166.000
38.90000 139.000
38.94500 122.000
38.99000 134.000
39.03500 132.000
39.08000 149.000
39.12500 209.000
39.17000 291.000
39.21500 431.000
39.26000 374.000
39.30500 345.000
39.35000 519.000
39.39500 739.000
39.44000 465.000
39.48500 264.000
39.53000 364.000
39.57500 433.000
39.62000 286.000
39.66500 176.000
39.71000 150.000
39.75500 151.000
39.80000 156.000
39.84500 245.000
39.89000 399.000
39.93500 429.000
39.98000 225.000
40.02500 163.000
40.07000 146.000
40.11500 145.000
40.16000 147.000
40.20500 149.000
40.25000 246.000
40.29500 301.000
40.34000 321.000
40.38500 254.000
40.43000 230.000
40.47500 273.000
40.52000 267.000
40.56500 292.000
40.61000 404.000
40.65500 336.000
40.70000 250.000
40.74500 215.000
40.79000 317.000
40.83500 316.000
40.88000 473.000
40.92500 468.000
40.97000 232.000
41.01500 167.000
41.06000 245.000
41.10500 374.000
41.15000 348.000
41.19500 305.000
41.24000 200.000
41.28500 220.000
41.33000 191.000
41.37500 318.000
41.42000 382.000
41.46500 505.000
41.51000 666.000
41.55500 417.000
41.60000 245.000
41.64500 162.000
41.69000 156.000
41.73500 129.000
41.78000 116.000
41.82500 134.000
41.87000 118.000
41.91500 119.000
41.96000 137.000
42.00500 146.000
42.05000 166.000
42.09500 178.000
42.14000 227.000
42.18500 184.000
42.23000 133.000
42.27500 145.000
42.32000 158.000
42.36500 224.000
42.41000 275.000
42.45500 219.000
42.50000 163.000
42.54500 133.000
42.59000 124.000
42.63500 102.000
42.68000 156.000
42.72500 189.000
42.77000 237.000
42.81500 247.000
42.86000 226.000
42.90500 181.000
42.95000 167.000
42.99500 232.000
43.04000 383.000
43.08500 665.000
43.13000 575.000
43.17500 261.000
43.22000 189.000
43.26500 136.000
43.31000 116.000
43.35500 110.000
43.40000 140.000
43.44500 111.000
43.49000 130.000
43.53500 115.000
43.58000 124.000
43.62500 111.000
43.67000 119.000
43.71500 121.000
43.76000 116.000
43.80500 117.000
43.85000 145.000
43.89500 187.000
43.94000 332.000
43.98500 532.000
44.03000 368.000
44.07500 260.000
44.12000 281.000
44.16500 207.000
44.21000 137.000
44.25500 143.000
44.30000 167.000
44.34500 233.000
44.39000 349.000
44.43500 455.000
44.48000 276.000
44.52500 199.000
44.57000 168.000
44.61500 161.000
44.66000 149.000
44.70500 129.000
44.75000 173.000
44.79500 212.000
44.84000 170.000
44.88500 179.000
44.93000 239.000
44.97500 411.000
45.02000 566.000
45.06500 409.000
45.11000 315.000
45.15500 188.000
45.20000 163.000
45.24500 218.000
45.29000 372.000
45.33500 317.000
45.38000 170.000
45.42500 120.000
45.47000 132.000
45.51500 131.000
45.56000 121.000
45.60500 109.000
45.65000 138.000
45.69500 148.000
45.74000 186.000
45.78500 240.000
45.83000 235.000
45.87500 198.000
45.92000 206.000
45.96500 296.000
46.01000 375.000
46.05500 253.000
46.10000 224.000
46.14500 238.000
46.19000 159.000
46.23500 139.000
46.28000 153.000
46.32500 187.000
46.37000 165.000
46.41500 141.000
46.46000 170.000
46.50500 218.000
46.55000 253.000
46.59500 217.000
46.64000 187.000
46.68500 143.000
46.73000 118.000
46.77500 116.000
46.82000 106.000
46.86500 117.000
46.91000 151.000
46.95500 114.000
47.00000 156.000
47.04500 213.000
47.09000 165.000
47.13500 133.000
47.18000 128.000
47.22500 145.000
47.27000 168.000
47.31500 195.000
47.36000 152.000
47.40500 138.000
47.45000 183.000
47.49500 336.000
47.54000 614.000
47.58500 464.000
47.63000 219.000
47.67500 154.000
47.72000 125.000
47.76500 109.000
47.81000 115.000
47.85500 114.000
47.90000 124.000
47.94500 138.000
47.99000 174.000
48.03500 202.000
48.08000 146.000
48.12500 128.000
48.17000 114.000
48.21500 101.000
48.26000 116.000
48.30500 113.000
48.35000 138.000
48.39500 120.000
48.44000 129.000
48.48500 168.000
48.53000 221.000
48.57500 276.000
48.62000 211.000
48.66500 147.000
48.71000 159.000
48.75500 197.000
48.80000 159.000
48.84500 195.000
48.89000 171.000
48.93500 119.000
48.98000 114.000
49.02500 123.000
49.07000 109.000
49.11500 118.000
49.16000 134.000
49.20500 125.000
49.25000 124.000
49.29500 117.000
49.34000 128.000
49.38500 131.000
49.43000 130.000
49.47500 132.000
49.52000 126.000
49.56500 123.000
49.61000 144.000
49.65500 131.000
49.70000 150.000
49.74500 153.000
49.79000 186.000
49.83500 230.000
49.88000 169.000
49.92500 138.000
49.97000 112.000
50.01500 127.000
50.06000 130.000
50.10500 111.000
50.15000 129.000
50.19500 155.000
50.24000 132.000
50.28500 135.000
50.33000 171.000
50.37500 157.000
50.42000 234.000
50.46500 178.000
50.51000 139.000
50.55500 141.000
50.60000 143.000
50.64500 120.000
50.69000 131.000
50.73500 183.000
50.78000 146.000
50.82500 142.000
50.87000 171.000
50.91500 212.000
50.96000 308.000
51.00500 290.000
51.05000 192.000
51.09500 194.000
51.14000 172.000
51.18500 228.000
51.23000 282.000
51.27500 446.000
51.32000 665.000
51.36500 467.000
51.41000 285.000
51.45500 267.000
51.50000 315.000
51.54500 294.000
51.59000 399.000
51.63500 432.000
51.68000 254.000
51.72500 188.000
51.77000 173.000
51.81500 157.000
51.86000 129.000
51.90500 125.000
51.95000 127.000
51.99500 143.000
52.04000 133.000
52.08500 129.000
52.13000 130.000
52.17500 142.000
52.22000 180.000
52.26500 170.000
52.31000 137.000
52.35500 131.000
52.40000 129.000
52.44500 139.000
52.49000 155.000
52.53500 178.000
52.58000 149.000
52.62500 152.000
52.67000 125.000
52.71500 137.000
52.76000 134.000
52.80500 162.000
52.85000 158.000
52.89500 155.000
52.94000 128.000
52.98500 136.000
53.03000 164.000
53.07500 190.000
53.12000 209.000
53.16500 188.000
53.21000 160.000
53.25500 136.000
53.30000 156.000
53.34500 199.000
53.39000 235.000
53.43500 255.000
53.48000 152.000
53.52500 128.000
53.57000 130.000
53.61500 141.000
53.66000 169.000
53.70500 168.000
53.75000 156.000
53.79500 148.000
53.84000 136.000
53.88500 125.000
53.93000 108.000
53.97500 96.000
54.02000 97.000
54.06500 103.000
54.11000 139.000
54.15500 111.000
54.20000 147.000
54.24500 202.000
54.29000 215.000
54.33500 191.000
54.38000 121.000
54.42500 117.000
54.47000 111.000
54.51500 104.000
54.56000 118.000
54.60500 125.000
54.65000 125.000
54.69500 160.000
54.74000 146.000
54.78500 125.000
54.83000 128.000
54.87500 108.000
54.92000 164.000
54.96500 209.000
55.01000 174.000
55.05500 137.000
55.10000 112.000
55.14500 123.000
55.19000 162.000
55.23500 152.000
55.28000 130.000
55.32500 150.000
55.37000 191.000
55.41500 151.000
55.46000 185.000
55.50500 162.000
55.55000 121.000
55.59500 114.000
55.64000 101.000
55.68500 128.000
55.73000 135.000
55.77500 156.000
55.82000 236.000
55.86500 208.000
55.91000 222.000
55.95500 189.000
56.00000 138.000
56.04500 141.000
56.09000 114.000
56.13500 142.000
56.18000 125.000
56.22500 120.000
56.27000 101.000
56.31500 116.000
56.36000 120.000
56.40500 106.000
56.45000 111.000
56.49500 119.000
56.54000 134.000
56.58500 164.000
56.63000 159.000
56.67500 153.000
56.72000 187.000
56.76500 202.000
56.81000 180.000
56.85500 149.000
56.90000 136.000
56.94500 134.000
56.99000 151.000
57.03500 168.000
57.08000 123.000
57.12500 114.000
57.17000 125.000
57.21500 116.000
57.26000 125.000
57.30500 127.000
57.35000 128.000
57.39500 175.000
57.44000 191.000
57.48500 157.000
57.53000 116.000
57.57500 110.000
57.62000 130.000
57.66500 154.000
57.71000 145.000
57.75500 143.000
57.80000 118.000
57.84500 133.000
57.89000 113.000
57.93500 112.000
57.98000 108.000
58.02500 117.000
58.07000 127.000
58.11500 150.000
58.16000 168.000
58.20500 130.000
58.25000 157.000
58.29500 139.000
58.34000 140.000
58.38500 143.000
58.43000 133.000
58.47500 125.000
58.52000 107.000
58.56500 124.000
58.61000 141.000
58.65500 148.000
58.70000 172.000
58.74500 155.000
58.79000 145.000
58.83500 145.000
58.88000 120.000
58.92500 118.000
58.97000 125.000
59.01500 118.000
59.06000 112.000
59.10500 127.000
59.15000 150.000
59.19500 150.000
59.24000 137.000
59.28500 114.000
59.33000 103.000
59.37500 112.000
59.42000 119.000
59.46500 102.000
59.51000 105.000
59.55500 123.000
59.60000 105.000
59.64500 129.000
59.69000 148.000
59.73500 145.000
59.78000 117.000
59.82500 112.000
59.87000 126.000
59.91500 110.000
59.96000 122.000
60.00500 148.000
60.05000 145.000
60.09500 123.000
60.14000 113.000
60.18500 128.000
60.23000 109.000
60.27500 106.000
60.32000 145.000
60.36500 129.000
60.41000 116.000
60.45500 123.000
60.50000 100.000
60.54500 135.000
60.59000 162.000
60.63500 150.000
60.68000 140.000
60.72500 130.000
60.77000 140.000
60.81500 145.000
60.86000 156.000
60.90500 137.000
60.95000 107.000
60.99500 148.000
61.04000 141.000
61.08500 142.000
61.13000 145.000
61.17500 145.000
61.22000 132.000
61.26500 117.000
61.31000 126.000
61.35500 117.000
61.40000 127.000
61.44500 162.000
61.49000 181.000
61.53500 203.000
61.58000 151.000
61.62500 150.000
61.67000 119.000
61.71500 120.000
61.76000 120.000
61.80500 123.000
61.85000 131.000
61.89500 100.000
61.94000 123.000
61.98500 139.000