File: ISoD/xrd_data/HSC010_ranges_combined.xyd
2.000 569.0
2.045 518.0
2.090 500.0
2.135 488.0
2.180 439.0
2.225 433.0
2.270 374.0
2.315 395.0
2.360 385.0
2.405 371.0
2.450 311.0
2.495 339.0
2.540 308.0
2.585 297.0
2.630 305.0
2.675 269.0
2.720 280.0
2.765 292.0
2.810 252.0
2.855 246.0
2.900 249.0
2.945 262.0
2.990 261.0
3.035 234.0
3.080 239.0
3.125 222.0
3.170 220.0
3.215 229.0
3.260 220.0
3.305 229.0
3.350 196.0
3.395 201.0
3.440 212.0
3.485 217.0
3.530 218.0
3.575 201.0
3.620 193.0
3.665 193.0
3.710 173.0
3.755 181.0
3.800 179.0
3.845 202.0
3.890 182.0
3.935 182.0
3.980 187.0
4.025 178.0
4.070 199.0
4.115 185.0
4.160 173.0
4.205 186.0
4.250 169.0
4.295 215.0
4.340 190.0
4.385 207.0
4.430 207.0
4.475 178.0
4.520 193.0
4.565 169.0
4.610 188.0
4.655 182.0
4.700 166.0
4.745 171.0
4.790 171.0
4.835 177.0
4.880 183.0
4.925 189.0
4.970 190.0
5.015 189.0
5.060 164.0
5.105 193.0
5.150 195.0
5.195 165.0
5.240 182.0
5.285 192.0
5.330 179.0
5.375 167.0
5.420 182.0
5.465 156.0
5.510 163.0
5.555 163.0
5.600 181.0
5.645 189.0
5.690 179.0
5.735 190.0
5.780 176.0
5.825 195.0
5.870 217.0
5.915 217.0
5.960 220.0
6.005 243.0
6.050 293.0
6.095 392.0
6.140 528.0
6.185 418.0
6.230 225.0
6.275 198.0
6.320 170.0
6.365 176.0
6.410 188.0
6.455 176.0
6.500 183.0
6.545 193.0
6.590 187.0
6.635 178.0
6.680 188.0
6.725 199.0
6.770 174.0
6.815 176.0
6.860 187.0
6.905 174.0
6.950 190.0
6.995 165.0
7.040 182.0
7.085 194.0
7.130 163.0
7.175 194.0
7.220 180.0
7.265 187.0
7.310 177.0
7.355 191.0
7.400 182.0
7.445 167.0
7.490 178.0
7.535 166.0
7.580 166.0
7.625 182.0
7.670 190.0
7.715 193.0
7.760 182.0
7.805 190.0
7.850 176.0
7.895 180.0
7.940 175.0
7.985 193.0
8.030 191.0
8.075 185.0
8.120 168.0
8.165 182.0
8.210 159.0
8.255 167.0
8.300 179.0
8.345 175.0
8.390 176.0
8.435 175.0
8.480 167.0
8.525 173.0
8.570 185.0
8.615 178.0
8.660 158.0
8.705 185.0
8.750 176.0
8.795 169.0
8.840 184.0
8.885 195.0
8.930 181.0
8.975 185.0
9.020 170.0
9.065 179.0
9.110 182.0
9.155 196.0
9.200 172.0
9.245 170.0
9.290 194.0
9.335 176.0
9.380 176.0
9.425 191.0
9.470 190.0
9.515 189.0
9.560 175.0
9.605 171.0
9.650 169.0
9.695 191.0
9.740 155.0
9.785 172.0
9.830 193.0
9.875 165.0
9.920 184.0
9.965 185.0
10.010 179.0
10.055 189.0
10.100 196.0
10.145 164.0
10.190 178.0
10.235 195.0
10.280 179.0
10.325 188.0
10.370 191.0
10.415 176.0
10.460 190.0
10.505 172.0
10.550 187.0
10.595 189.0
10.640 170.0
10.685 198.0
10.730 200.0
10.775 192.0
10.820 193.0
10.865 182.0
10.910 186.0
10.955 193.0
11.000 170.0
11.045 207.0
11.090 186.0
11.135 203.0
11.180 210.0
11.225 176.0
11.270 198.0
11.315 206.0
11.360 191.0
11.405 200.0
11.450 196.0
11.495 190.0
11.540 218.0
11.585 193.0
11.630 191.0
11.675 202.0
11.720 182.0
11.765 212.0
11.810 194.0
11.855 210.0
11.900 195.0
11.945 234.0
11.990 252.0
12.035 285.0
12.080 309.0
12.125 451.0
12.170 632.0
12.215 891.0
"12.260     1120"
"12.305     1274"
12.350 917.0
12.395 417.0
12.440 302.0
12.485 302.0
12.530 286.0
12.575 283.0
12.620 283.0
12.665 262.0
12.710 233.0
12.755 285.0
12.800 246.0
12.845 249.0
12.890 266.0
12.935 251.0
12.980 264.0
13.025 244.0
13.070 264.0
13.115 241.0
13.160 251.0
13.205 268.0
13.250 271.0
13.295 294.0
13.340 311.0
13.385 344.0
13.430 367.0
13.475 311.0
13.520 241.0
13.565 270.0
13.610 260.0
13.655 283.0
13.700 247.0
13.745 236.0
13.790 225.0
13.835 233.0
13.880 231.0
13.925 217.0
13.970 237.0
14.015 216.0
14.060 222.0
14.105 227.0
14.150 227.0
14.195 219.0
14.240 228.0
14.285 246.0
14.330 204.0
14.375 216.0
14.420 206.0
14.465 209.0
14.510 211.0
14.555 222.0
14.600 227.0
14.645 234.0
14.690 219.0
14.735 207.0
14.780 216.0
14.825 207.0
14.870 212.0
14.915 243.0
14.960 240.0
15.005 229.0
15.050 222.0
15.095 206.0
15.140 216.0
15.185 223.0
15.230 193.0
15.275 199.0
15.320 210.0
15.365 197.0
15.410 218.0
15.455 206.0
15.500 220.0
15.545 197.0
15.590 216.0
15.635 228.0
15.680 200.0
15.725 224.0
15.770 200.0
15.815 211.0
15.860 227.0
15.905 217.0
15.950 209.0
15.995 206.0
16.040 196.0
16.085 218.0
16.130 224.0
16.175 211.0
16.220 223.0
16.265 246.0
16.310 247.0
16.355 241.0
16.400 242.0
16.445 244.0
16.490 259.0
16.535 237.0
16.580 220.0
16.625 204.0
16.670 224.0
16.715 236.0
16.760 218.0
16.805 220.0
16.850 256.0
16.895 228.0
16.940 235.0
16.985 223.0
17.030 239.0
17.075 229.0
17.120 222.0
17.165 237.0
17.210 219.0
17.255 227.0
17.300 234.0
17.345 225.0
17.390 198.0
17.435 248.0
17.480 209.0
17.525 226.0
17.570 238.0
17.615 245.0
17.660 247.0
17.705 236.0
17.750 221.0
17.795 234.0
17.840 234.0
17.885 212.0
17.930 234.0
17.975 241.0
18.020 258.0
18.065 260.0
18.110 262.0
18.155 245.0
18.200 240.0
18.245 229.0
18.290 260.0
18.335 240.0
18.380 238.0
18.425 258.0
18.470 264.0
18.515 272.0
18.560 263.0
18.605 245.0
18.650 231.0
18.695 243.0
18.740 250.0
18.785 263.0
18.830 270.0
18.875 251.0
18.920 242.0
18.965 241.0
19.010 228.0
19.055 253.0
19.100 243.0
19.145 240.0
19.190 248.0
19.235 273.0
19.280 223.0
19.325 271.0
19.370 259.0
19.415 313.0
19.460 290.0
19.505 310.0
19.550 295.0
19.595 284.0
19.640 294.0
19.685 251.0
19.730 251.0
19.775 249.0
19.820 268.0
19.865 258.0
19.910 248.0
19.955 249.0
20.000 260.0
20.045 238.0
20.090 240.0
20.135 254.0
20.180 258.0
20.225 264.0
20.270 263.0
20.315 253.0
20.360 244.0
20.405 268.0
20.450 240.0
20.495 249.0
20.540 231.0
20.585 236.0
20.630 265.0
20.675 265.0
20.720 245.0
20.765 246.0
20.810 241.0
20.855 251.0
20.900 264.0
20.945 243.0
20.990 215.0
21.035 266.0
21.080 238.0
21.125 261.0
21.170 265.0
21.215 260.0
21.260 260.0
21.305 259.0
21.350 249.0
21.395 281.0
21.440 280.0
21.485 245.0
21.530 291.0
21.575 282.0
21.620 301.0
21.665 295.0
21.710 258.0
21.755 275.0
21.800 280.0
21.845 266.0
21.890 270.0
21.935 273.0
21.980 274.0
22.025 292.0
22.070 302.0
22.115 317.0
22.160 276.0
22.205 301.0
22.250 262.0
22.295 270.0
22.340 280.0
22.385 296.0
22.430 276.0
22.475 268.0
22.520 257.0
22.565 263.0
22.610 272.0
22.655 266.0
22.700 248.0
22.745 262.0
22.790 242.0
22.835 274.0
22.880 275.0
22.925 259.0
22.970 265.0
23.015 267.0
23.060 262.0
23.105 268.0
23.150 297.0
23.195 293.0
23.240 262.0
23.285 283.0
23.330 313.0
23.375 282.0
23.420 284.0
23.465 262.0
23.510 300.0
23.555 284.0
23.600 290.0
23.645 309.0
23.690 277.0
23.735 296.0
23.780 280.0
23.825 270.0
23.870 291.0
23.915 285.0
23.960 287.0
24.005 267.0
24.050 256.0
24.095 272.0
24.140 273.0
24.185 265.0
24.230 296.0
24.275 260.0
24.320 285.0
24.365 294.0
24.410 255.0
24.455 290.0
24.500 294.0
24.545 306.0
24.590 262.0
24.635 287.0
24.680 289.0
24.725 334.0
24.770 348.0
24.815 325.0
24.860 298.0
24.905 275.0
24.950 288.0
24.995 273.0
25.040 286.0
25.085 299.0
25.130 315.0
25.175 323.0
25.220 326.0
25.265 326.0
25.310 328.0
25.355 330.0
25.400 298.0
25.445 326.0
25.490 323.0
25.535 336.0
25.580 334.0
25.625 351.0
25.670 379.0
25.715 388.0
25.760 471.0
25.805 459.0
25.850 455.0
25.895 395.0
25.940 382.0
25.985 355.0
26.030 348.0
26.075 362.0
26.120 351.0
26.165 402.0
26.210 443.0
26.255 477.0
26.300 550.0
26.345 571.0
26.390 517.0
26.435 511.0
26.480 454.0
26.525 448.0
26.570 460.0
26.615 484.0
26.660 496.0
26.705 516.0
26.750 565.0
26.795 599.0
26.840 576.0
26.885 521.0
26.930 559.0
26.975 587.0
27.020 632.0
27.065 655.0
27.110 705.0
27.155 738.0
27.200 727.0
27.245 684.0
27.290 670.0
27.335 700.0
27.380 662.0
27.425 683.0
27.470 701.0
27.515 698.0
27.560 673.0
27.605 731.0
27.650 776.0
27.695 747.0
27.740 777.0
27.785 839.0
27.830 845.0
27.875 696.0
27.920 662.0
27.965 565.0
28.010 486.0
28.055 452.0
28.100 430.0
28.145 418.0
28.190 407.0
28.235 392.0
28.280 380.0
28.325 316.0
28.370 371.0
28.415 317.0
28.460 319.0
28.505 312.0
28.550 294.0
28.595 292.0
28.640 284.0
28.685 294.0
28.730 285.0
28.775 294.0
28.820 295.0
28.865 294.0
28.910 268.0
28.955 283.0
29.000 260.0
29.045 293.0
29.090 261.0
29.135 252.0
29.180 232.0
29.225 270.0
29.270 265.0
29.315 262.0
29.360 235.0
29.405 259.0
29.450 243.0
29.495 267.0
29.540 242.0
29.585 262.0
29.630 239.0
29.675 233.0
29.720 220.0
29.765 228.0
29.810 234.0
29.855 224.0
29.900 244.0
29.945 226.0
29.990 255.0
30.035 278.0
30.080 265.0
30.125 271.0
30.170 229.0
30.215 254.0
30.260 242.0
30.305 265.0
30.350 236.0
30.395 206.0
30.440 229.0
30.485 217.0
30.530 207.0
30.575 229.0
30.620 229.0
30.665 235.0
30.710 245.0
30.755 245.0
30.800 239.0
30.845 261.0
30.890 225.0
30.935 230.0
30.980 235.0
31.025 227.0
31.070 297.0
31.115 317.0
31.160 274.0
31.205 224.0
31.250 223.0
31.295 209.0
31.340 192.0
31.385 221.0
31.430 185.0
31.475 213.0
31.520 195.0
31.565 202.0
31.610 219.0
31.655 216.0
31.700 211.0
31.745 223.0
31.790 187.0
31.835 188.0
31.880 190.0
31.925 194.0
31.970 205.0
32.015 190.0
32.060 201.0
32.105 192.0
32.150 205.0
32.195 194.0
32.240 166.0
32.285 179.0
32.330 192.0
32.375 162.0
32.420 185.0
32.465 169.0
32.510 166.0
32.555 183.0
32.600 190.0
32.645 172.0
32.690 186.0
32.735 182.0
32.780 171.0
32.825 173.0
32.870 170.0
32.915 172.0
32.960 167.0
33.005 183.0
33.050 161.0
33.095 175.0
33.140 163.0
33.185 164.0
33.230 178.0
33.275 168.0
33.320 178.0
33.365 156.0
33.410 160.0
33.455 159.0
33.500 150.0
33.545 166.0
33.590 168.0
33.635 166.0
33.680 182.0
33.725 177.0
33.770 175.0
33.815 174.0
33.860 184.0
33.905 190.0
33.950 178.0
33.995 175.0
34.040 170.0
34.085 157.0
34.130 164.0
34.175 161.0
34.220 171.0
34.265 152.0
34.310 157.0
34.355 136.0
34.400 153.0
34.445 154.0
34.490 150.0
34.535 152.0
34.580 157.0
34.625 149.0
34.670 156.0
34.715 129.0
34.760 150.0
34.805 133.0
34.850 148.0
34.895 157.0
34.940 155.0
34.985 152.0
35.030 153.0
35.075 140.0
35.120 151.0
35.165 169.0
35.210 118.0
35.255 149.0
35.300 158.0
35.345 143.0
35.390 134.0
35.435 153.0
35.480 151.0
35.525 149.0
35.570 123.0
35.615 155.0
35.660 139.0
35.705 118.0
35.750 125.0
35.795 131.0
35.840 132.0
35.885 131.0
35.930 133.0
35.975 142.0
36.020 121.0
36.065 129.0
36.110 128.0
36.155 131.0
36.200 123.0
36.245 131.0
36.290 140.0
36.335 108.0
36.380 132.0
36.425 130.0
36.470 119.0
36.515 133.0
36.560 132.0
36.605 124.0
36.650 103.0
36.695 134.0
36.740 135.0
36.785 116.0
36.830 135.0
36.875 117.0
36.920 139.0
36.965 132.0
37.010 132.0
37.055 127.0
37.100 117.0
37.145 133.0
37.190 129.0
37.235 128.0
37.280 120.0
37.325 135.0
37.370 116.0
37.415 126.0
37.460 128.0
37.505 138.0
37.550 134.0
37.595 127.0
37.640 123.0
37.685 134.0
37.730 132.0
37.775 122.0
37.820 113.0
37.865 102.0
37.910 117.0
37.955 136.0
38.000 131.0
38.045 120.0
38.090 126.0
38.135 116.0
38.180 125.0
38.225 124.0
38.270 122.0
38.315 112.0
38.360 111.0
38.405 131.0
38.450 122.0
38.495 114.0
38.540 136.0
38.585 134.0
38.630 108.0
38.675 127.0
38.720 114.0
38.765 132.0
38.810 120.0
38.855 134.0
38.900 115.0
38.945 133.0
38.990 117.0
39.035 120.0
39.080 117.0
39.125 115.0
39.170 119.0
39.215 124.0
39.260 120.0
39.305 109.0
39.350 107.0
39.395 119.0
39.440 122.0
39.485 122.0
39.530 113.0
39.575 104.0
39.620 102.0
39.665 127.0
39.710 121.0
39.755 127.0
39.800 121.0
39.845 122.0
39.890 95.0
39.935 155.0
39.980 133.0
40.025 124.0
40.070 119.0
40.115 101.0
40.160 110.0
40.205 115.0
40.250 133.0
40.295 138.0
40.340 115.0
40.385 122.0
40.430 124.0
40.475 114.0
40.520 127.0
40.565 111.0
40.610 115.0
40.655 119.0
40.700 124.0
40.745 137.0
40.790 124.0
40.835 117.0
40.880 127.0
40.925 120.0
40.970 110.0
41.015 109.0
41.060 129.0
41.105 112.0
41.150 138.0
41.195 122.0
41.240 136.0
41.285 132.0
41.330 119.0
41.375 119.0
41.420 98.0
41.465 105.0
41.510 97.0
41.555 116.0
41.600 131.0
41.645 110.0
41.690 116.0
41.735 108.0
41.780 116.0
41.825 106.0
41.870 119.0
41.915 120.0
41.960 121.0
42.005 126.0
42.050 134.0
42.095 111.0
42.140 130.0
42.185 106.0
42.230 125.0
42.275 125.0
42.320 123.0
42.365 116.0
42.410 117.0
42.455 115.0
42.500 107.0
42.545 123.0
42.590 128.0
42.635 118.0
42.680 107.0
42.725 130.0
42.770 123.0
42.815 116.0
42.860 112.0
42.905 134.0
42.950 109.0
42.995 103.0
43.040 119.0
43.085 112.0
43.130 124.0
43.175 113.0
43.220 117.0
43.265 100.0
43.310 126.0
43.355 120.0
43.400 109.0
43.445 110.0
43.490 124.0
43.535 134.0
43.580 96.0
43.625 116.0
43.670 106.0
43.715 114.0
43.760 102.0
43.805 111.0
43.850 105.0
43.895 107.0
43.940 114.0
43.985 125.0
44.030 116.0
44.075 124.0
44.120 117.0
44.165 112.0
44.210 134.0
44.255 137.0
44.300 109.0
44.345 115.0
44.390 104.0
44.435 107.0
44.480 132.0
44.525 106.0
44.570 123.0
44.615 120.0
44.660 117.0
44.705 124.0
44.750 120.0
44.795 132.0
44.840 113.0
44.885 117.0
44.930 112.0
44.975 114.0
45.020 124.0
45.065 112.0
45.110 114.0
45.155 118.0
45.200 108.0
45.245 123.0
45.290 119.0
45.335 120.0
45.380 101.0
45.425 112.0
45.470 126.0
45.515 112.0
45.560 105.0
45.605 86.0
45.650 113.0
45.695 98.0
45.740 107.0
45.785 113.0
45.830 113.0
45.875 118.0
45.920 118.0
45.965 142.0
46.010 124.0
46.055 110.0
46.100 102.0
46.145 121.0
46.190 127.0
46.235 122.0
46.280 115.0
46.325 118.0
46.370 105.0
46.415 103.0
46.460 115.0
46.505 92.0
46.550 114.0
46.595 117.0
46.640 110.0
46.685 103.0
46.730 116.0
46.775 115.0
46.820 118.0
46.865 115.0
46.910 116.0
46.955 128.0
47.000 97.0
47.045 124.0
47.090 112.0
47.135 102.0
47.180 111.0
47.225 107.0
47.270 99.0
47.315 98.0
47.360 117.0
47.405 108.0
47.450 88.0
47.495 104.0
47.540 105.0
47.585 116.0
47.630 103.0
47.675 88.0
47.720 92.0
47.765 111.0
47.810 106.0
47.855 108.0
47.900 99.0
47.945 102.0
47.990 95.0
48.035 93.0
48.080 101.0
48.125 95.0
48.170 108.0
48.215 99.0
48.260 93.0
48.305 94.0
48.350 106.0
48.395 95.0
48.440 101.0
48.485 85.0
48.530 95.0
48.575 112.0
48.620 85.0
48.665 101.0
48.710 93.0
48.755 117.0
48.800 91.0
48.845 106.0
48.890 93.0
48.935 95.0
48.980 95.0
49.025 99.0
49.070 92.0
49.115 100.0
49.160 100.0
49.205 84.0
49.250 101.0
49.295 102.0
49.340 93.0
49.385 95.0
49.430 93.0
49.475 108.0
49.520 101.0
49.565 100.0
49.610 100.0
49.655 87.0
49.700 106.0
49.745 88.0
49.790 80.0
49.835 110.0
49.880 93.0
49.925 93.0
49.970 97.0
50.015 96.0
50.060 94.0
50.105 101.0
50.150 93.0
50.195 86.0
50.240 110.0
50.285 98.0
50.330 103.0
50.375 97.0
50.420 94.0
50.465 99.0
50.510 101.0
50.555 89.0
50.600 108.0
50.645 94.0
50.690 91.0
50.735 102.0
50.780 101.0
50.825 95.0
50.870 81.0
50.915 93.0
50.960 100.0
51.005 108.0
51.050 89.0
51.095 90.0
51.140 81.0
51.185 92.0
51.230 98.0
51.275 83.0
51.320 94.0
51.365 95.0
51.410 93.0
51.455 76.0
51.500 107.0
51.545 88.0
51.590 80.0
51.635 94.0
51.680 102.0
51.725 100.0
51.770 87.0
51.815 105.0
51.860 101.0
51.905 110.0
51.950 89.0
51.995 95.0
52.040 103.0
52.085 96.0
52.130 95.0
52.175 95.0
52.220 97.0
52.265 94.0
52.310 103.0
52.355 101.0
52.400 81.0
52.445 89.0
52.490 98.0
52.535 100.0
52.580 85.0
52.625 80.0
52.670 86.0
52.715 91.0
52.760 99.0
52.805 81.0
52.850 92.0
52.895 97.0
52.940 92.0
52.985 96.0
53.030 111.0
53.075 105.0
53.120 95.0
53.165 97.0
53.210 87.0
53.255 109.0
53.300 92.0
53.345 107.0
53.390 106.0
53.435 100.0
53.480 102.0
53.525 96.0
53.570 107.0
53.615 101.0
53.660 97.0
53.705 94.0
53.750 94.0
53.795 98.0
53.840 100.0
53.885 93.0
53.930 89.0
53.975 90.0
54.020 78.0
54.065 82.0
54.110 109.0
54.155 83.0
54.200 94.0
54.245 105.0
54.290 87.0
54.335 103.0
54.380 92.0
54.425 91.0
54.470 98.0
54.515 107.0
54.560 103.0
54.605 86.0
54.650 97.0
54.695 97.0
54.740 108.0
54.785 95.0
54.830 105.0
54.875 98.0
54.920 92.0
54.965 108.0
55.010 95.0
55.055 84.0
55.100 91.0
55.145 96.0
55.190 85.0
55.235 94.0
55.280 84.0
55.325 96.0
55.370 102.0
55.415 95.0
55.460 107.0
55.505 101.0
55.550 101.0
55.595 105.0
55.640 89.0
55.685 94.0
55.730 107.0
55.775 91.0
55.820 97.0
55.865 86.0
55.910 89.0
55.955 119.0
56.000 101.0
56.045 93.0
56.090 117.0
56.135 76.0
56.180 100.0
56.225 106.0
56.270 90.0
56.315 93.0
56.360 103.0
56.405 93.0
56.450 99.0
56.495 101.0
56.540 89.0
56.585 92.0
56.630 93.0
56.675 106.0
56.720 93.0
56.765 93.0
56.810 100.0
56.855 84.0
56.900 101.0
56.945 97.0
56.990 95.0
57.035 96.0
57.080 103.0
57.125 93.0
57.170 102.0
57.215 86.0
57.260 84.0
57.305 85.0
57.350 96.0
57.395 84.0
57.440 89.0
57.485 97.0
57.530 93.0
57.575 87.0
57.620 86.0
57.665 83.0
57.710 82.0
57.755 95.0
57.800 94.0
57.845 88.0
57.890 83.0
57.935 98.0
57.980 90.0
58.025 90.0
58.070 79.0
58.115 91.0
58.160 100.0
58.205 87.0
58.250 81.0
58.295 87.0
58.340 90.0
58.385 77.0
58.430 91.0
58.475 86.0
58.520 94.0
58.565 73.0
58.610 83.0
58.655 89.0
58.700 71.0
58.745 83.0
58.790 93.0
58.835 77.0
58.880 84.0
58.925 83.0
58.970 88.0
59.015 90.0
59.060 79.0
59.105 91.0
59.150 77.0
59.195 88.0
59.240 77.0
59.285 84.0
59.330 70.0
59.375 92.0
59.420 63.0
59.465 78.0
59.510 95.0
59.555 89.0
59.600 75.0
59.645 69.0
59.690 84.0
59.735 91.0
59.780 78.0
59.825 79.0
59.870 86.0
59.915 89.0
59.960 81.0
60.005 69.0
60.050 73.0
60.095 79.0
60.140 87.0
60.185 84.0
60.230 86.0
60.275 89.0
60.320 84.0
60.365 75.0
60.410 78.0
60.455 75.0
60.500 78.0
60.545 75.0
60.590 89.0
60.635 62.0
60.680 75.0
60.725 84.0
60.770 82.0
60.815 75.0
60.860 75.0
60.905 90.0
60.950 74.0
60.995 87.0
61.040 84.0
61.085 76.0
61.130 85.0
61.175 82.0
61.220 72.0
61.265 80.0
61.310 77.0
61.355 83.0
61.400 73.0
61.445 80.0
61.490 74.0
61.535 88.0
61.580 74.0
61.625 84.0
61.670 81.0
61.715 71.0
61.760 76.0
61.805 91.0
61.850 83.0
61.895 69.0
61.940 76.0
61.985 81.0