File: ISoD/xrd_data/HSC054.xy
2.00000 8.000
2.04500 9.000
2.09000 6.000
2.13500 12.000
2.18000 9.000
2.22500 10.000
2.27000 11.000
2.31500 7.000
2.36000 10.000
2.40500 14.000
2.45000 9.000
2.49500 11.000
2.54000 11.000
2.58500 9.000
2.63000 8.000
2.67500 8.000
2.72000 8.000
2.76500 10.000
2.81000 10.000
2.85500 11.000
2.90000 3.000
2.94500 14.000
2.99000 30.000
3.03500 65.000
3.08000 181.000
3.12500 510.000
3.17000 792.000
3.21500 932.000
3.26000 910.000
3.30500 925.000
3.35000 926.000
3.39500 906.000
3.44000 868.000
3.48500 818.000
3.53000 846.000
3.57500 866.000
3.62000 869.000
3.66500 846.000
3.71000 802.000
3.75500 785.000
3.80000 788.000
3.84500 805.000
3.89000 753.000
3.93500 827.000
3.98000 797.000
4.02500 792.000
4.07000 799.000
4.11500 796.000
4.16000 756.000
4.20500 785.000
4.25000 781.000
4.29500 810.000
4.34000 784.000
4.38500 749.000
4.43000 788.000
4.47500 812.000
4.52000 802.000
4.56500 786.000
4.61000 773.000
4.65500 809.000
4.70000 793.000
4.74500 788.000
4.79000 775.000
4.83500 825.000
4.88000 827.000
4.92500 812.000
4.97000 855.000
5.01500 869.000
5.06000 840.000
5.10500 840.000
5.15000 853.000
5.19500 831.000
5.24000 824.000
5.28500 858.000
5.33000 869.000
5.37500 888.000
5.42000 828.000
5.46500 851.000
5.51000 913.000
5.55500 925.000
5.60000 965.000
5.64500 967.000
5.69000 1086.000
5.73500 1165.000
5.78000 1229.000
5.82500 1421.000
5.87000 1713.000
5.91500 1972.000
5.96000 2458.000
6.00500 3165.000
6.05000 4077.000
6.09500 5679.000
6.14000 7011.000
6.18500 5152.000
6.23000 2732.000
6.27500 1641.000
6.32000 1277.000
6.36500 1117.000
6.41000 1013.000
6.45500 993.000
6.50000 987.000
6.54500 947.000
6.59000 967.000
6.63500 970.000
6.68000 970.000
6.72500 981.000
6.77000 951.000
6.81500 925.000
6.86000 964.000
6.90500 1005.000
6.95000 976.000
6.99500 1092.000
7.04000 1210.000
7.08500 1051.000
7.13000 976.000
7.17500 973.000
7.22000 897.000
7.26500 920.000
7.31000 942.000
7.35500 954.000
7.40000 924.000
7.44500 988.000
7.49000 977.000
7.53500 938.000
7.58000 980.000
7.62500 940.000
7.67000 998.000
7.71500 961.000
7.76000 977.000
7.80500 992.000
7.85000 959.000
7.89500 941.000
7.94000 945.000
7.98500 977.000
8.03000 961.000
8.07500 936.000
8.12000 962.000
8.16500 925.000
8.21000 955.000
8.25500 979.000
8.30000 931.000
8.34500 972.000
8.39000 992.000
8.43500 999.000
8.48000 971.000
8.52500 950.000
8.57000 958.000
8.61500 958.000
8.66000 969.000
8.70500 936.000
8.75000 1008.000
8.79500 1046.000
8.84000 966.000
8.88500 971.000
8.93000 1001.000
8.97500 1000.000
9.02000 959.000
9.06500 982.000
9.11000 999.000
9.15500 1009.000
9.20000 997.000
9.24500 978.000
9.29000 973.000
9.33500 986.000
9.38000 959.000
9.42500 1072.000
9.47000 1044.000
9.51500 1006.000
9.56000 1069.000
9.60500 1001.000
9.65000 1026.000
9.69500 1037.000
9.74000 1045.000
9.78500 1043.000
9.83000 1057.000
9.87500 997.000
9.92000 1046.000
9.96500 1013.000
10.01000 1038.000
10.05500 1010.000
10.10000 1086.000
10.14500 1057.000
10.19000 1021.000
10.23500 1054.000
10.28000 1026.000
10.32500 1091.000
10.37000 1071.000
10.41500 1091.000
10.46000 1155.000
10.50500 1120.000
10.55000 1204.000
10.59500 1427.000
10.64000 1507.000
10.68500 1227.000
10.73000 1222.000
10.77500 1273.000
10.82000 1390.000
10.86500 1568.000
10.91000 1888.000
10.95500 2213.000
11.00000 2451.000
11.04500 2194.000
11.09000 1597.000
11.13500 1380.000
11.18000 1299.000
11.22500 1194.000
11.27000 1227.000
11.31500 1229.000
11.36000 1226.000
11.40500 1222.000
11.45000 1163.000
11.49500 1165.000
11.54000 1203.000
11.58500 1199.000
11.63000 1156.000
11.67500 1183.000
11.72000 1247.000
11.76500 1267.000
11.81000 1278.000
11.85500 1376.000
11.90000 1370.000
11.94500 1456.000
11.99000 1698.000
12.03500 1943.000
12.08000 2494.000
12.12500 3478.000
12.17000 5113.000
12.21500 8127.000
12.26000 12606.000
12.30500 17446.000
12.35000 14430.000
12.39500 8174.000
12.44000 4298.000
12.48500 2653.000
12.53000 2009.000
12.57500 1710.000
12.62000 1553.000
12.66500 1511.000
12.71000 1432.000
12.75500 1344.000
12.80000 1369.000
12.84500 1282.000
12.89000 1289.000
12.93500 1288.000
12.98000 1226.000
13.02500 1247.000
13.07000 1214.000
13.11500 1239.000
13.16000 1251.000
13.20500 1332.000
13.25000 1365.000
13.29500 1430.000
13.34000 1431.000
13.38500 1361.000
13.43000 1301.000
13.47500 1277.000
13.52000 1238.000
13.56500 1241.000
13.61000 1239.000
13.65500 1256.000
13.70000 1319.000
13.74500 1362.000
13.79000 1438.000
13.83500 1558.000
13.88000 1395.000
13.92500 1258.000
13.97000 1240.000
14.01500 1277.000
14.06000 1268.000
14.10500 1284.000
14.15000 1305.000
14.19500 1134.000
14.24000 1164.000
14.28500 1152.000
14.33000 1078.000
14.37500 1101.000
14.42000 1169.000
14.46500 1136.000
14.51000 1188.000
14.55500 1138.000
14.60000 1086.000
14.64500 1130.000
14.69000 1135.000
14.73500 1076.000
14.78000 1090.000
14.82500 1109.000
14.87000 1144.000
14.91500 1166.000
14.96000 1100.000
15.00500 1095.000
15.05000 1038.000
15.09500 1087.000
15.14000 1062.000
15.18500 1121.000
15.23000 1133.000
15.27500 1100.000
15.32000 1096.000
15.36500 1064.000
15.41000 1115.000
15.45500 1110.000
15.50000 1125.000
15.54500 1119.000
15.59000 1133.000
15.63500 1073.000
15.68000 1139.000
15.72500 1137.000
15.77000 1122.000
15.81500 1144.000
15.86000 1134.000
15.90500 1138.000
15.95000 1145.000
15.99500 1125.000
16.04000 1164.000
16.08500 1198.000
16.13000 1159.000
16.17500 1202.000
16.22000 1220.000
16.26500 1245.000
16.31000 1258.000
16.35500 1250.000
16.40000 1248.000
16.44500 1219.000
16.49000 1172.000
16.53500 1211.000
16.58000 1141.000
16.62500 1184.000
16.67000 1160.000
16.71500 1143.000
16.76000 1174.000
16.80500 1161.000
16.85000 1158.000
16.89500 1131.000
16.94000 1165.000
16.98500 1171.000
17.03000 1151.000
17.07500 1161.000
17.12000 1236.000
17.16500 1203.000
17.21000 1218.000
17.25500 1246.000
17.30000 1261.000
17.34500 1228.000
17.39000 1275.000
17.43500 1279.000
17.48000 1294.000
17.52500 1371.000
17.57000 1346.000
17.61500 1381.000
17.66000 1259.000
17.70500 1286.000
17.75000 1329.000
17.79500 1296.000
17.84000 1251.000
17.88500 1281.000
17.93000 1244.000
17.97500 1299.000
18.02000 1334.000
18.06500 1260.000
18.11000 1229.000
18.15500 1282.000
18.20000 1283.000
18.24500 1311.000
18.29000 1290.000
18.33500 1350.000
18.38000 1389.000
18.42500 1532.000
18.47000 1688.000
18.51500 1745.000
18.56000 1767.000
18.60500 1537.000
18.65000 1493.000
18.69500 1426.000
18.74000 1412.000
18.78500 1432.000
18.83000 1364.000
18.87500 1380.000
18.92000 1349.000
18.96500 1361.000
19.01000 1331.000
19.05500 1315.000
19.10000 1321.000
19.14500 1339.000
19.19000 1270.000
19.23500 1292.000
19.28000 1302.000
19.32500 1285.000
19.37000 1217.000
19.41500 1285.000
19.46000 1236.000
19.50500 1300.000
19.55000 1289.000
19.59500 1312.000
19.64000 1269.000
19.68500 1352.000
19.73000 1315.000
19.77500 1278.000
19.82000 1321.000
19.86500 1304.000
19.91000 1379.000
19.95500 1274.000
20.00000 1374.000
20.04500 1354.000
20.09000 1331.000
20.13500 1263.000
20.18000 1300.000
20.22500 1316.000
20.27000 1344.000
20.31500 1309.000
20.36000 1310.000
20.40500 1255.000
20.45000 1279.000
20.49500 1363.000
20.54000 1312.000
20.58500 1316.000
20.63000 1286.000
20.67500 1309.000
20.72000 1335.000
20.76500 1320.000
20.81000 1295.000
20.85500 1293.000
20.90000 1246.000
20.94500 1286.000
20.99000 1359.000
21.03500 1367.000
21.08000 1309.000
21.12500 1363.000
21.17000 1374.000
21.21500 1305.000
21.26000 1344.000
21.30500 1374.000
21.35000 1304.000
21.39500 1420.000
21.44000 1398.000
21.48500 1358.000
21.53000 1329.000
21.57500 1353.000
21.62000 1295.000
21.66500 1347.000
21.71000 1354.000
21.75500 1370.000
21.80000 1367.000
21.84500 1394.000
21.89000 1404.000
21.93500 1448.000
21.98000 1472.000
22.02500 1496.000
22.07000 1522.000
22.11500 1504.000
22.16000 1501.000
22.20500 1517.000
22.25000 1528.000
22.29500 1560.000
22.34000 1578.000
22.38500 1503.000
22.43000 1496.000
22.47500 1501.000
22.52000 1530.000
22.56500 1593.000
22.61000 1554.000
22.65500 1540.000
22.70000 1567.000
22.74500 1559.000
22.79000 1569.000
22.83500 1664.000
22.88000 1582.000
22.92500 1613.000
22.97000 1663.000
23.01500 1645.000
23.06000 1664.000
23.10500 1734.000
23.15000 1760.000
23.19500 1808.000
23.24000 1825.000
23.28500 1804.000
23.33000 1875.000
23.37500 1839.000
23.42000 1917.000
23.46500 1867.000
23.51000 1905.000
23.55500 1897.000
23.60000 2000.000
23.64500 1928.000
23.69000 1900.000
23.73500 1947.000
23.78000 1819.000
23.82500 1773.000
23.87000 1854.000
23.91500 1824.000
23.96000 1812.000
24.00500 1755.000
24.05000 1709.000
24.09500 1766.000
24.14000 1699.000
24.18500 1664.000
24.23000 1664.000
24.27500 1611.000
24.32000 1560.000
24.36500 1529.000
24.41000 1578.000
24.45500 1568.000
24.50000 1556.000
24.54500 1677.000
24.59000 1666.000
24.63500 1790.000
24.68000 1991.000
24.72500 2279.000
24.77000 2475.000
24.81500 2448.000
24.86000 2228.000
24.90500 2050.000
24.95000 1825.000
24.99500 1720.000
25.04000 1679.000
25.08500 1721.000
25.13000 1695.000
25.17500 1658.000
25.22000 1711.000
25.26500 1746.000
25.31000 1745.000
25.35500 1753.000
25.40000 1854.000
25.44500 1758.000
25.49000 1863.000
25.53500 1920.000
25.58000 1971.000
25.62500 1979.000
25.67000 1894.000
25.71500 1943.000
25.76000 1921.000
25.80500 1940.000
25.85000 1957.000
25.89500 1940.000
25.94000 2094.000
25.98500 2136.000
26.03000 2312.000
26.07500 2436.000
26.12000 2547.000
26.16500 2861.000
26.21000 3070.000
26.25500 3271.000
26.30000 3498.000
26.34500 3721.000
26.39000 3862.000
26.43500 4104.000
26.48000 4288.000
26.52500 4691.000
26.57000 5113.000
26.61500 5458.000
26.66000 5663.000
26.70500 6082.000
26.75000 6061.000
26.79500 6142.000
26.84000 6257.000
26.88500 6228.000
26.93000 6187.000
26.97500 6141.000
27.02000 6198.000
27.06500 5920.000
27.11000 5616.000
27.15500 5297.000
27.20000 4872.000
27.24500 4523.000
27.29000 4275.000
27.33500 4021.000
27.38000 3846.000
27.42500 3586.000
27.47000 3527.000
27.51500 3400.000
27.56000 3366.000
27.60500 3302.000
27.65000 3376.000
27.69500 3379.000
27.74000 3410.000
27.78500 3368.000
27.83000 3313.000
27.87500 3304.000
27.92000 3271.000
27.96500 3082.000
28.01000 3010.000
28.05500 3204.000
28.10000 3574.000
28.14500 3649.000
28.19000 3148.000
28.23500 2801.000
28.28000 2459.000
28.32500 2408.000
28.37000 2219.000
28.41500 2176.000
28.46000 2164.000
28.50500 2131.000
28.55000 2040.000
28.59500 2086.000
28.64000 2006.000
28.68500 2006.000
28.73000 1990.000
28.77500 1981.000
28.82000 2011.000
28.86500 1845.000
28.91000 1904.000
28.95500 1891.000
29.00000 1840.000
29.04500 1822.000
29.09000 1812.000
29.13500 1787.000
29.18000 1739.000
29.22500 1710.000
29.27000 1678.000
29.31500 1639.000
29.36000 1680.000
29.40500 1622.000
29.45000 1600.000
29.49500 1608.000
29.54000 1528.000
29.58500 1525.000
29.63000 1496.000
29.67500 1551.000
29.72000 1420.000
29.76500 1434.000
29.81000 1457.000
29.85500 1419.000
29.90000 1464.000
29.94500 1405.000
29.99000 1435.000
30.03500 1376.000
30.08000 1506.000
30.12500 1451.000
30.17000 1420.000
30.21500 1468.000
30.26000 1452.000
30.30500 1451.000
30.35000 1454.000
30.39500 1454.000
30.44000 1383.000
30.48500 1375.000
30.53000 1390.000
30.57500 1409.000
30.62000 1367.000
30.66500 1401.000
30.71000 1407.000
30.75500 1394.000
30.80000 1433.000
30.84500 1436.000
30.89000 1578.000
30.93500 1718.000
30.98000 1868.000
31.02500 2116.000
31.07000 2561.000
31.11500 2666.000
31.16000 2519.000
31.20500 2247.000
31.25000 2007.000
31.29500 1738.000
31.34000 1571.000
31.38500 1481.000
31.43000 1415.000
31.47500 1332.000
31.52000 1272.000
31.56500 1179.000
31.61000 1250.000
31.65500 1210.000
31.70000 1202.000
31.74500 1210.000
31.79000 1175.000
31.83500 1213.000
31.88000 1162.000
31.92500 1165.000
31.97000 1117.000
32.01500 1117.000
32.06000 1154.000
32.10500 1109.000
32.15000 1153.000
32.19500 1158.000
32.24000 1143.000
32.28500 1119.000
32.33000 1087.000
32.37500 1097.000
32.42000 1086.000
32.46500 1080.000
32.51000 1122.000
32.55500 1062.000
32.60000 1074.000
32.64500 1068.000
32.69000 979.000
32.73500 1104.000
32.78000 1090.000
32.82500 1049.000
32.87000 1015.000
32.91500 1037.000
32.96000 1017.000
33.00500 1085.000
33.05000 1076.000
33.09500 1047.000
33.14000 1061.000
33.18500 1075.000
33.23000 1033.000
33.27500 1059.000
33.32000 1077.000
33.36500 1039.000
33.41000 1102.000
33.45500 1017.000
33.50000 1034.000
33.54500 1035.000
33.59000 1029.000
33.63500 1031.000
33.68000 1045.000
33.72500 1074.000
33.77000 982.000
33.81500 1052.000
33.86000 1040.000
33.90500 1027.000
33.95000 1034.000
33.99500 1081.000
34.04000 1036.000
34.08500 1098.000
34.13000 968.000
34.17500 1050.000
34.22000 967.000
34.26500 984.000
34.31000 1025.000
34.35500 1020.000
34.40000 1001.000
34.44500 999.000
34.49000 990.000
34.53500 981.000
34.58000 949.000
34.62500 963.000
34.67000 900.000
34.71500 926.000
34.76000 878.000
34.80500 882.000
34.85000 846.000
34.89500 865.000
34.94000 912.000
34.98500 839.000
35.03000 879.000
35.07500 868.000
35.12000 857.000
35.16500 894.000
35.21000 831.000
35.25500 860.000
35.30000 854.000
35.34500 821.000
35.39000 831.000
35.43500 815.000
35.48000 793.000
35.52500 787.000
35.57000 811.000
35.61500 822.000
35.66000 794.000
35.70500 785.000
35.75000 794.000
35.79500 833.000
35.84000 806.000
35.88500 774.000
35.93000 808.000
35.97500 782.000
36.02000 789.000
36.06500 772.000
36.11000 791.000
36.15500 751.000
36.20000 738.000
36.24500 778.000
36.29000 753.000
36.33500 780.000
36.38000 722.000
36.42500 744.000
36.47000 783.000
36.51500 713.000
36.56000 769.000
36.60500 750.000
36.65000 730.000
36.69500 724.000
36.74000 722.000
36.78500 714.000
36.83000 714.000
36.87500 740.000
36.92000 678.000
36.96500 726.000
37.01000 717.000
37.05500 696.000
37.10000 729.000
37.14500 771.000
37.19000 751.000
37.23500 717.000
37.28000 735.000
37.32500 782.000
37.37000 798.000
37.41500 772.000
37.46000 827.000
37.50500 887.000
37.55000 980.000
37.59500 945.000
37.64000 900.000
37.68500 901.000
37.73000 842.000
37.77500 818.000
37.82000 754.000
37.86500 786.000
37.91000 801.000
37.95500 744.000
38.00000 746.000
38.04500 772.000
38.09000 753.000
38.13500 752.000
38.18000 740.000
38.22500 732.000
38.27000 718.000
38.31500 683.000
38.36000 761.000
38.40500 695.000
38.45000 697.000
38.49500 696.000
38.54000 683.000
38.58500 712.000
38.63000 717.000
38.67500 762.000
38.72000 688.000
38.76500 681.000
38.81000 730.000
38.85500 757.000
38.90000 720.000
38.94500 753.000
38.99000 752.000
39.03500 787.000
39.08000 729.000
39.12500 766.000
39.17000 784.000
39.21500 851.000
39.26000 817.000
39.30500 768.000
39.35000 801.000
39.39500 811.000
39.44000 821.000
39.48500 857.000
39.53000 745.000
39.57500 800.000
39.62000 755.000
39.66500 740.000
39.71000 747.000
39.75500 787.000
39.80000 785.000
39.84500 730.000
39.89000 741.000
39.93500 736.000
39.98000 759.000
40.02500 742.000
40.07000 764.000
40.11500 793.000
40.16000 790.000
40.20500 760.000
40.25000 783.000
40.29500 782.000
40.34000 775.000
40.38500 801.000
40.43000 787.000
40.47500 814.000
40.52000 776.000
40.56500 764.000
40.61000 783.000
40.65500 805.000
40.70000 766.000
40.74500 787.000
40.79000 799.000
40.83500 739.000
40.88000 734.000
40.92500 776.000
40.97000 787.000
41.01500 811.000
41.06000 783.000
41.10500 801.000
41.15000 794.000
41.19500 839.000
41.24000 819.000
41.28500 797.000
41.33000 772.000
41.37500 772.000
41.42000 754.000
41.46500 752.000
41.51000 715.000
41.55500 695.000
41.60000 754.000
41.64500 676.000
41.69000 687.000
41.73500 684.000
41.78000 680.000
41.82500 703.000
41.87000 738.000
41.91500 685.000
41.96000 731.000
42.00500 718.000
42.05000 705.000
42.09500 707.000
42.14000 716.000
42.18500 719.000
42.23000 770.000
42.27500 697.000
42.32000 739.000
42.36500 696.000
42.41000 761.000
42.45500 704.000
42.50000 716.000
42.54500 723.000
42.59000 737.000
42.63500 720.000
42.68000 730.000
42.72500 707.000
42.77000 746.000
42.81500 691.000
42.86000 753.000
42.90500 732.000
42.95000 740.000
42.99500 746.000
43.04000 726.000
43.08500 706.000
43.13000 788.000
43.17500 745.000
43.22000 741.000
43.26500 732.000
43.31000 728.000
43.35500 668.000
43.40000 740.000
43.44500 702.000
43.49000 709.000
43.53500 742.000
43.58000 680.000
43.62500 727.000
43.67000 723.000
43.71500 707.000
43.76000 758.000
43.80500 717.000
43.85000 708.000
43.89500 676.000
43.94000 717.000
43.98500 714.000
44.03000 709.000
44.07500 714.000
44.12000 715.000
44.16500 755.000
44.21000 695.000
44.25500 708.000
44.30000 704.000
44.34500 706.000
44.39000 732.000
44.43500 708.000
44.48000 684.000
44.52500 692.000
44.57000 704.000
44.61500 696.000
44.66000 693.000
44.70500 695.000
44.75000 676.000
44.79500 681.000
44.84000 698.000
44.88500 708.000
44.93000 732.000
44.97500 674.000
45.02000 695.000
45.06500 655.000
45.11000 724.000
45.15500 715.000
45.20000 709.000
45.24500 662.000
45.29000 674.000
45.33500 720.000
45.38000 721.000
45.42500 693.000
45.47000 704.000
45.51500 750.000
45.56000 714.000
45.60500 700.000
45.65000 696.000
45.69500 736.000
45.74000 688.000
45.78500 699.000
45.83000 677.000
45.87500 703.000
45.92000 719.000
45.96500 699.000
46.01000 703.000
46.05500 662.000
46.10000 700.000
46.14500 687.000
46.19000 712.000
46.23500 694.000
46.28000 691.000
46.32500 685.000
46.37000 676.000
46.41500 674.000
46.46000 692.000
46.50500 651.000
46.55000 667.000
46.59500 733.000
46.64000 657.000
46.68500 686.000
46.73000 662.000
46.77500 663.000
46.82000 663.000
46.86500 658.000
46.91000 670.000
46.95500 689.000
47.00000 661.000
47.04500 667.000
47.09000 692.000
47.13500 661.000
47.18000 662.000
47.22500 689.000
47.27000 652.000
47.31500 678.000
47.36000 666.000
47.40500 632.000
47.45000 676.000
47.49500 629.000
47.54000 645.000
47.58500 679.000
47.63000 645.000
47.67500 656.000
47.72000 622.000
47.76500 642.000
47.81000 620.000
47.85500 588.000
47.90000 602.000
47.94500 601.000
47.99000 594.000
48.03500 614.000
48.08000 599.000
48.12500 595.000
48.17000 586.000
48.21500 600.000
48.26000 573.000
48.30500 591.000
48.35000 560.000
48.39500 586.000
48.44000 597.000
48.48500 592.000
48.53000 587.000
48.57500 622.000
48.62000 593.000
48.66500 561.000
48.71000 560.000
48.75500 581.000
48.80000 554.000
48.84500 568.000
48.89000 594.000
48.93500 565.000
48.98000 547.000
49.02500 593.000
49.07000 536.000
49.11500 558.000
49.16000 578.000
49.20500 582.000
49.25000 606.000
49.29500 615.000
49.34000 616.000
49.38500 589.000
49.43000 614.000
49.47500 619.000
49.52000 596.000
49.56500 622.000
49.61000 583.000
49.65500 582.000
49.70000 560.000
49.74500 581.000
49.79000 547.000
49.83500 570.000
49.88000 566.000
49.92500 547.000
49.97000 593.000
50.01500 566.000
50.06000 539.000
50.10500 596.000
50.15000 543.000
50.19500 580.000
50.24000 578.000
50.28500 593.000
50.33000 553.000
50.37500 602.000
50.42000 561.000
50.46500 561.000
50.51000 568.000
50.55500 585.000
50.60000 592.000
50.64500 576.000
50.69000 530.000
50.73500 550.000
50.78000 580.000
50.82500 550.000
50.87000 571.000
50.91500 585.000
50.96000 616.000
51.00500 575.000
51.05000 614.000
51.09500 594.000
51.14000 565.000
51.18500 562.000
51.23000 628.000
51.27500 573.000
51.32000 579.000
51.36500 602.000
51.41000 607.000
51.45500 617.000
51.50000 593.000
51.54500 622.000
51.59000 617.000
51.63500 636.000
51.68000 636.000
51.72500 642.000
51.77000 622.000
51.81500 633.000
51.86000 652.000
51.90500 684.000
51.95000 681.000
51.99500 684.000
52.04000 715.000
52.08500 693.000
52.13000 706.000
52.17500 701.000
52.22000 722.000
52.26500 628.000
52.31000 680.000
52.35500 645.000
52.40000 675.000
52.44500 645.000
52.49000 687.000
52.53500 642.000
52.58000 650.000
52.62500 620.000
52.67000 631.000
52.71500 601.000
52.76000 650.000
52.80500 644.000
52.85000 637.000
52.89500 657.000
52.94000 646.000
52.98500 646.000
53.03000 724.000
53.07500 653.000
53.12000 672.000
53.16500 652.000
53.21000 649.000
53.25500 663.000
53.30000 651.000
53.34500 645.000
53.39000 676.000
53.43500 629.000
53.48000 661.000
53.52500 677.000
53.57000 645.000
53.61500 653.000
53.66000 636.000
53.70500 636.000
53.75000 646.000
53.79500 692.000
53.84000 684.000
53.88500 659.000
53.93000 647.000
53.97500 665.000
54.02000 663.000
54.06500 670.000
54.11000 694.000
54.15500 678.000
54.20000 651.000
54.24500 635.000
54.29000 639.000
54.33500 662.000
54.38000 667.000
54.42500 686.000
54.47000 693.000
54.51500 664.000
54.56000 660.000
54.60500 645.000
54.65000 726.000
54.69500 697.000
54.74000 704.000
54.78500 686.000
54.83000 640.000
54.87500 665.000
54.92000 666.000
54.96500 666.000
55.01000 685.000
55.05500 675.000
55.10000 700.000
55.14500 614.000
55.19000 676.000
55.23500 706.000
55.28000 637.000
55.32500 699.000
55.37000 648.000
55.41500 648.000
55.46000 638.000
55.50500 700.000
55.55000 660.000
55.59500 646.000
55.64000 613.000
55.68500 651.000
55.73000 651.000
55.77500 695.000
55.82000 647.000
55.86500 632.000
55.91000 635.000
55.95500 620.000
56.00000 590.000
56.04500 629.000
56.09000 635.000
56.13500 622.000
56.18000 623.000
56.22500 609.000
56.27000 608.000
56.31500 612.000
56.36000 591.000
56.40500 579.000
56.45000 579.000
56.49500 623.000
56.54000 593.000
56.58500 592.000
56.63000 588.000
56.67500 577.000
56.72000 579.000
56.76500 604.000
56.81000 601.000
56.85500 553.000
56.90000 526.000
56.94500 576.000
56.99000 551.000
57.03500 539.000
57.08000 569.000
57.12500 568.000
57.17000 533.000
57.21500 543.000
57.26000 533.000
57.30500 511.000
57.35000 565.000
57.39500 566.000
57.44000 577.000
57.48500 544.000
57.53000 550.000
57.57500 537.000
57.62000 520.000
57.66500 556.000
57.71000 544.000
57.75500 494.000
57.80000 553.000
57.84500 543.000
57.89000 525.000
57.93500 539.000
57.98000 523.000
58.02500 535.000
58.07000 545.000
58.11500 537.000
58.16000 544.000
58.20500 545.000
58.25000 528.000
58.29500 519.000
58.34000 510.000
58.38500 522.000
58.43000 517.000
58.47500 515.000
58.52000 480.000
58.56500 487.000
58.61000 501.000
58.65500 551.000
58.70000 499.000
58.74500 516.000
58.79000 509.000
58.83500 508.000
58.88000 501.000
58.92500 518.000
58.97000 538.000
59.01500 480.000
59.06000 481.000
59.10500 472.000
59.15000 466.000
59.19500 487.000
59.24000 472.000
59.28500 483.000
59.33000 484.000
59.37500 456.000
59.42000 461.000
59.46500 476.000
59.51000 483.000
59.55500 480.000
59.60000 455.000
59.64500 474.000
59.69000 506.000
59.73500 461.000
59.78000 446.000
59.82500 466.000
59.87000 457.000
59.91500 440.000
59.96000 463.000
60.00500 477.000
60.05000 470.000
60.09500 457.000
60.14000 466.000
60.18500 452.000
60.23000 454.000
60.27500 472.000
60.32000 465.000
60.36500 460.000
60.41000 501.000
60.45500 494.000
60.50000 419.000
60.54500 486.000
60.59000 459.000
60.63500 459.000
60.68000 486.000
60.72500 449.000
60.77000 468.000
60.81500 472.000
60.86000 484.000
60.90500 476.000
60.95000 440.000
60.99500 451.000
61.04000 429.000
61.08500 434.000
61.13000 438.000
61.17500 482.000
61.22000 470.000
61.26500 428.000
61.31000 448.000
61.35500 442.000
61.40000 456.000
61.44500 440.000
61.49000 475.000
61.53500 447.000
61.58000 426.000
61.62500 434.000
61.67000 426.000
61.71500 470.000
61.76000 444.000
61.80500 435.000
61.85000 463.000
61.89500 447.000
61.94000 453.000
61.98500 454.000