File: ISoD/xrd_data/HSC072.xy
2.00000 7.000
2.04500 6.000
2.09000 5.000
2.13500 3.000
2.18000 2.000
2.22500 7.000
2.27000 5.000
2.31500 8.000
2.36000 5.000
2.40500 3.000
2.45000 5.000
2.49500 4.000
2.54000 3.000
2.58500 2.000
2.63000 6.000
2.67500 4.000
2.72000 3.000
2.76500 4.000
2.81000 3.000
2.85500 5.000
2.90000 5.000
2.94500 5.000
2.99000 5.000
3.03500 2.000
3.08000 4.000
3.12500 10.000
3.17000 23.000
3.21500 62.000
3.26000 129.000
3.30500 236.000
3.35000 267.000
3.39500 277.000
3.44000 261.000
3.48500 277.000
3.53000 262.000
3.57500 266.000
3.62000 259.000
3.66500 268.000
3.71000 267.000
3.75500 280.000
3.80000 263.000
3.84500 251.000
3.89000 262.000
3.93500 256.000
3.98000 278.000
4.02500 271.000
4.07000 252.000
4.11500 249.000
4.16000 278.000
4.20500 274.000
4.25000 266.000
4.29500 262.000
4.34000 269.000
4.38500 277.000
4.43000 278.000
4.47500 271.000
4.52000 279.000
4.56500 269.000
4.61000 289.000
4.65500 285.000
4.70000 277.000
4.74500 275.000
4.79000 305.000
4.83500 309.000
4.88000 277.000
4.92500 279.000
4.97000 289.000
5.01500 300.000
5.06000 301.000
5.10500 297.000
5.15000 298.000
5.19500 292.000
5.24000 315.000
5.28500 320.000
5.33000 323.000
5.37500 322.000
5.42000 295.000
5.46500 341.000
5.51000 317.000
5.55500 290.000
5.60000 341.000
5.64500 298.000
5.69000 345.000
5.73500 310.000
5.78000 328.000
5.82500 296.000
5.87000 333.000
5.91500 318.000
5.96000 332.000
6.00500 323.000
6.05000 320.000
6.09500 330.000
6.14000 330.000
6.18500 338.000
6.23000 354.000
6.27500 319.000
6.32000 324.000
6.36500 329.000
6.41000 334.000
6.45500 365.000
6.50000 346.000
6.54500 328.000
6.59000 348.000
6.63500 341.000
6.68000 339.000
6.72500 365.000
6.77000 349.000
6.81500 353.000
6.86000 360.000
6.90500 366.000
6.95000 355.000
6.99500 347.000
7.04000 378.000
7.08500 375.000
7.13000 377.000
7.17500 351.000
7.22000 392.000
7.26500 374.000
7.31000 363.000
7.35500 356.000
7.40000 363.000
7.44500 375.000
7.49000 356.000
7.53500 350.000
7.58000 385.000
7.62500 366.000
7.67000 348.000
7.71500 376.000
7.76000 383.000
7.80500 377.000
7.85000 373.000
7.89500 378.000
7.94000 409.000
7.98500 361.000
8.03000 352.000
8.07500 366.000
8.12000 346.000
8.16500 357.000
8.21000 356.000
8.25500 397.000
8.30000 394.000
8.34500 363.000
8.39000 399.000
8.43500 360.000
8.48000 365.000
8.52500 374.000
8.57000 349.000
8.61500 366.000
8.66000 347.000
8.70500 390.000
8.75000 366.000
8.79500 405.000
8.84000 396.000
8.88500 400.000
8.93000 386.000
8.97500 406.000
9.02000 371.000
9.06500 376.000
9.11000 383.000
9.15500 388.000
9.20000 393.000
9.24500 388.000
9.29000 387.000
9.33500 368.000
9.38000 394.000
9.42500 380.000
9.47000 407.000
9.51500 389.000
9.56000 391.000
9.60500 376.000
9.65000 425.000
9.69500 407.000
9.74000 388.000
9.78500 416.000
9.83000 371.000
9.87500 405.000
9.92000 398.000
9.96500 389.000
10.01000 390.000
10.05500 388.000
10.10000 393.000
10.14500 385.000
10.19000 403.000
10.23500 373.000
10.28000 359.000
10.32500 394.000
10.37000 385.000
10.41500 385.000
10.46000 373.000
10.50500 379.000
10.55000 424.000
10.59500 401.000
10.64000 387.000
10.68500 384.000
10.73000 386.000
10.77500 403.000
10.82000 401.000
10.86500 384.000
10.91000 391.000
10.95500 393.000
11.00000 406.000
11.04500 408.000
11.09000 397.000
11.13500 375.000
11.18000 392.000
11.22500 422.000
11.27000 417.000
11.31500 402.000
11.36000 402.000
11.40500 377.000
11.45000 397.000
11.49500 404.000
11.54000 397.000
11.58500 388.000
11.63000 399.000
11.67500 416.000
11.72000 401.000
11.76500 391.000
11.81000 424.000
11.85500 410.000
11.90000 393.000
11.94500 416.000
11.99000 417.000
12.03500 408.000
12.08000 377.000
12.12500 407.000
12.17000 399.000
12.21500 399.000
12.26000 403.000
12.30500 410.000
12.35000 378.000
12.39500 399.000
12.44000 405.000
12.48500 403.000
12.53000 400.000
12.57500 409.000
12.62000 384.000
12.66500 405.000
12.71000 387.000
12.75500 422.000
12.80000 403.000
12.84500 415.000
12.89000 419.000
12.93500 414.000
12.98000 401.000
13.02500 403.000
13.07000 401.000
13.11500 414.000
13.16000 378.000
13.20500 396.000
13.25000 382.000
13.29500 389.000
13.34000 407.000
13.38500 423.000
13.43000 412.000
13.47500 411.000
13.52000 399.000
13.56500 418.000
13.61000 410.000
13.65500 421.000
13.70000 398.000
13.74500 446.000
13.79000 425.000
13.83500 409.000
13.88000 410.000
13.92500 419.000
13.97000 381.000
14.01500 423.000
14.06000 425.000
14.10500 406.000
14.15000 432.000
14.19500 411.000
14.24000 433.000
14.28500 409.000
14.33000 408.000
14.37500 386.000
14.42000 434.000
14.46500 421.000
14.51000 389.000
14.55500 432.000
14.60000 383.000
14.64500 385.000
14.69000 389.000
14.73500 412.000
14.78000 408.000
14.82500 371.000
14.87000 419.000
14.91500 410.000
14.96000 404.000
15.00500 445.000
15.05000 407.000
15.09500 391.000
15.14000 403.000
15.18500 402.000
15.23000 396.000
15.27500 415.000
15.32000 408.000
15.36500 443.000
15.41000 447.000
15.45500 394.000
15.50000 401.000
15.54500 413.000
15.59000 449.000
15.63500 377.000
15.68000 434.000
15.72500 450.000
15.77000 399.000
15.81500 396.000
15.86000 418.000
15.90500 386.000
15.95000 402.000
15.99500 429.000
16.04000 371.000
16.08500 423.000
16.13000 373.000
16.17500 391.000
16.22000 418.000
16.26500 417.000
16.31000 379.000
16.35500 403.000
16.40000 429.000
16.44500 403.000
16.49000 424.000
16.53500 421.000
16.58000 442.000
16.62500 420.000
16.67000 397.000
16.71500 406.000
16.76000 437.000
16.80500 414.000
16.85000 417.000
16.89500 404.000
16.94000 417.000
16.98500 430.000
17.03000 414.000
17.07500 441.000
17.12000 388.000
17.16500 417.000
17.21000 384.000
17.25500 396.000
17.30000 427.000
17.34500 405.000
17.39000 417.000
17.43500 418.000
17.48000 416.000
17.52500 424.000
17.57000 425.000
17.61500 425.000
17.66000 430.000
17.70500 396.000
17.75000 430.000
17.79500 441.000
17.84000 408.000
17.88500 414.000
17.93000 392.000
17.97500 401.000
18.02000 390.000
18.06500 411.000
18.11000 420.000
18.15500 391.000
18.20000 395.000
18.24500 417.000
18.29000 405.000
18.33500 400.000
18.38000 430.000
18.42500 408.000
18.47000 411.000
18.51500 424.000
18.56000 429.000
18.60500 426.000
18.65000 440.000
18.69500 410.000
18.74000 449.000
18.78500 418.000
18.83000 434.000
18.87500 406.000
18.92000 418.000
18.96500 429.000
19.01000 431.000
19.05500 392.000
19.10000 434.000
19.14500 436.000
19.19000 403.000
19.23500 428.000
19.28000 421.000
19.32500 399.000
19.37000 421.000
19.41500 427.000
19.46000 415.000
19.50500 405.000
19.55000 429.000
19.59500 446.000
19.64000 431.000
19.68500 427.000
19.73000 433.000
19.77500 428.000
19.82000 413.000
19.86500 418.000
19.91000 420.000
19.95500 413.000
20.00000 415.000
20.04500 416.000
20.09000 407.000
20.13500 422.000
20.18000 449.000
20.22500 418.000
20.27000 416.000
20.31500 420.000
20.36000 412.000
20.40500 396.000
20.45000 390.000
20.49500 465.000
20.54000 405.000
20.58500 434.000
20.63000 419.000
20.67500 444.000
20.72000 440.000
20.76500 413.000
20.81000 479.000
20.85500 442.000
20.90000 413.000
20.94500 427.000
20.99000 456.000
21.03500 462.000
21.08000 428.000
21.12500 423.000
21.17000 417.000
21.21500 454.000
21.26000 461.000
21.30500 420.000
21.35000 417.000
21.39500 395.000
21.44000 436.000
21.48500 436.000
21.53000 410.000
21.57500 418.000
21.62000 420.000
21.66500 452.000
21.71000 451.000
21.75500 452.000
21.80000 457.000
21.84500 410.000
21.89000 408.000
21.93500 411.000
21.98000 410.000
22.02500 428.000
22.07000 434.000
22.11500 443.000
22.16000 413.000
22.20500 407.000
22.25000 427.000
22.29500 433.000
22.34000 404.000
22.38500 409.000
22.43000 420.000
22.47500 442.000
22.52000 429.000
22.56500 425.000
22.61000 432.000
22.65500 433.000
22.70000 430.000
22.74500 423.000
22.79000 441.000
22.83500 418.000
22.88000 433.000
22.92500 424.000
22.97000 436.000
23.01500 458.000
23.06000 430.000
23.10500 425.000
23.15000 418.000
23.19500 406.000
23.24000 443.000
23.28500 436.000
23.33000 463.000
23.37500 464.000
23.42000 430.000
23.46500 426.000
23.51000 417.000
23.55500 402.000
23.60000 407.000
23.64500 406.000
23.69000 446.000
23.73500 432.000
23.78000 440.000
23.82500 407.000
23.87000 434.000
23.91500 421.000
23.96000 425.000
24.00500 427.000
24.05000 400.000
24.09500 431.000
24.14000 430.000
24.18500 399.000
24.23000 415.000
24.27500 447.000
24.32000 422.000
24.36500 404.000
24.41000 415.000
24.45500 422.000
24.50000 438.000
24.54500 440.000
24.59000 421.000
24.63500 436.000
24.68000 434.000
24.72500 440.000
24.77000 450.000
24.81500 409.000
24.86000 394.000
24.90500 420.000
24.95000 397.000
24.99500 405.000
25.04000 406.000
25.08500 428.000
25.13000 411.000
25.17500 409.000
25.22000 437.000
25.26500 401.000
25.31000 425.000
25.35500 448.000
25.40000 404.000
25.44500 424.000
25.49000 424.000
25.53500 435.000
25.58000 437.000
25.62500 427.000
25.67000 423.000
25.71500 431.000
25.76000 438.000
25.80500 448.000
25.85000 438.000
25.89500 434.000
25.94000 434.000
25.98500 422.000
26.03000 423.000
26.07500 428.000
26.12000 405.000
26.16500 451.000
26.21000 444.000
26.25500 429.000
26.30000 426.000
26.34500 421.000
26.39000 445.000
26.43500 447.000
26.48000 441.000
26.52500 418.000
26.57000 399.000
26.61500 450.000
26.66000 419.000
26.70500 439.000
26.75000 449.000
26.79500 410.000
26.84000 458.000
26.88500 428.000
26.93000 452.000
26.97500 424.000
27.02000 432.000
27.06500 467.000
27.11000 454.000
27.15500 443.000
27.20000 464.000
27.24500 437.000
27.29000 453.000
27.33500 457.000
27.38000 445.000
27.42500 465.000
27.47000 472.000
27.51500 459.000
27.56000 463.000
27.60500 475.000
27.65000 484.000
27.69500 506.000
27.74000 472.000
27.78500 484.000
27.83000 451.000
27.87500 456.000
27.92000 462.000
27.96500 456.000
28.01000 449.000
28.05500 439.000
28.10000 469.000
28.14500 416.000
28.19000 426.000
28.23500 437.000
28.28000 370.000
28.32500 410.000
28.37000 397.000
28.41500 385.000
28.46000 394.000
28.50500 429.000
28.55000 394.000
28.59500 378.000
28.64000 372.000
28.68500 397.000
28.73000 383.000
28.77500 376.000
28.82000 388.000
28.86500 349.000
28.91000 361.000
28.95500 354.000
29.00000 390.000
29.04500 337.000
29.09000 411.000
29.13500 357.000
29.18000 374.000
29.22500 368.000
29.27000 371.000
29.31500 368.000
29.36000 381.000
29.40500 400.000
29.45000 375.000
29.49500 366.000
29.54000 362.000
29.58500 359.000
29.63000 358.000
29.67500 322.000
29.72000 339.000
29.76500 330.000
29.81000 350.000
29.85500 337.000
29.90000 320.000
29.94500 335.000
29.99000 359.000
30.03500 357.000
30.08000 312.000
30.12500 325.000
30.17000 333.000
30.21500 323.000
30.26000 335.000
30.30500 320.000
30.35000 311.000
30.39500 342.000
30.44000 312.000
30.48500 326.000
30.53000 308.000
30.57500 345.000
30.62000 326.000
30.66500 330.000
30.71000 357.000
30.75500 315.000
30.80000 341.000
30.84500 316.000
30.89000 334.000
30.93500 320.000
30.98000 314.000
31.02500 323.000
31.07000 310.000
31.11500 308.000
31.16000 300.000
31.20500 327.000
31.25000 299.000
31.29500 289.000
31.34000 281.000
31.38500 324.000
31.43000 285.000
31.47500 309.000
31.52000 318.000
31.56500 290.000
31.61000 313.000
31.65500 319.000
31.70000 286.000
31.74500 315.000
31.79000 296.000
31.83500 290.000
31.88000 267.000
31.92500 284.000
31.97000 298.000
32.01500 295.000
32.06000 304.000
32.10500 326.000
32.15000 277.000
32.19500 318.000
32.24000 293.000
32.28500 301.000
32.33000 279.000
32.37500 278.000
32.42000 288.000
32.46500 284.000
32.51000 291.000
32.55500 273.000
32.60000 276.000
32.64500 258.000
32.69000 267.000
32.73500 240.000
32.78000 265.000
32.82500 265.000
32.87000 280.000
32.91500 251.000
32.96000 259.000
33.00500 265.000
33.05000 258.000
33.09500 274.000
33.14000 246.000
33.18500 273.000
33.23000 253.000
33.27500 257.000
33.32000 257.000
33.36500 256.000
33.41000 247.000
33.45500 262.000
33.50000 249.000
33.54500 248.000
33.59000 235.000
33.63500 262.000
33.68000 242.000
33.72500 242.000
33.77000 251.000
33.81500 260.000
33.86000 240.000
33.90500 262.000
33.95000 239.000
33.99500 268.000
34.04000 248.000
34.08500 263.000
34.13000 240.000
34.17500 245.000
34.22000 245.000
34.26500 230.000
34.31000 236.000
34.35500 236.000
34.40000 223.000
34.44500 214.000
34.49000 235.000
34.53500 248.000
34.58000 245.000
34.62500 220.000
34.67000 234.000
34.71500 248.000
34.76000 227.000
34.80500 217.000
34.85000 216.000
34.89500 231.000
34.94000 224.000
34.98500 241.000
35.03000 236.000
35.07500 230.000
35.12000 228.000
35.16500 218.000
35.21000 217.000
35.25500 210.000
35.30000 211.000
35.34500 228.000
35.39000 219.000
35.43500 226.000
35.48000 234.000
35.52500 217.000
35.57000 217.000
35.61500 210.000
35.66000 220.000
35.70500 218.000
35.75000 206.000
35.79500 249.000
35.84000 204.000
35.88500 186.000
35.93000 225.000
35.97500 236.000
36.02000 196.000
36.06500 235.000
36.11000 212.000
36.15500 226.000
36.20000 187.000
36.24500 192.000
36.29000 195.000
36.33500 192.000
36.38000 177.000
36.42500 210.000
36.47000 194.000
36.51500 208.000
36.56000 176.000
36.60500 185.000
36.65000 190.000
36.69500 205.000
36.74000 213.000
36.78500 191.000
36.83000 180.000
36.87500 190.000
36.92000 204.000
36.96500 193.000
37.01000 193.000
37.05500 178.000
37.10000 188.000
37.14500 184.000
37.19000 180.000
37.23500 197.000
37.28000 179.000
37.32500 204.000
37.37000 171.000
37.41500 170.000
37.46000 182.000
37.50500 195.000
37.55000 180.000
37.59500 170.000
37.64000 177.000
37.68500 199.000
37.73000 205.000
37.77500 179.000
37.82000 185.000
37.86500 184.000
37.91000 184.000
37.95500 170.000
38.00000 200.000
38.04500 193.000
38.09000 177.000
38.13500 185.000
38.18000 191.000
38.22500 185.000
38.27000 187.000
38.31500 182.000
38.36000 171.000
38.40500 177.000
38.45000 171.000
38.49500 157.000
38.54000 198.000
38.58500 173.000
38.63000 188.000
38.67500 170.000
38.72000 182.000
38.76500 167.000
38.81000 189.000
38.85500 187.000
38.90000 176.000
38.94500 173.000
38.99000 168.000
39.03500 163.000
39.08000 165.000
39.12500 168.000
39.17000 201.000
39.21500 183.000
39.26000 159.000
39.30500 169.000
39.35000 177.000
39.39500 193.000
39.44000 184.000
39.48500 177.000
39.53000 167.000
39.57500 186.000
39.62000 182.000
39.66500 162.000
39.71000 163.000
39.75500 165.000
39.80000 141.000
39.84500 178.000
39.89000 172.000
39.93500 174.000
39.98000 179.000
40.02500 170.000
40.07000 177.000
40.11500 156.000
40.16000 157.000
40.20500 170.000
40.25000 160.000
40.29500 159.000
40.34000 163.000
40.38500 153.000
40.43000 182.000
40.47500 160.000
40.52000 184.000
40.56500 161.000
40.61000 181.000
40.65500 165.000
40.70000 166.000
40.74500 152.000
40.79000 176.000
40.83500 157.000
40.88000 171.000
40.92500 155.000
40.97000 163.000
41.01500 164.000
41.06000 160.000
41.10500 166.000
41.15000 167.000
41.19500 183.000
41.24000 175.000
41.28500 158.000
41.33000 167.000
41.37500 157.000
41.42000 174.000
41.46500 168.000
41.51000 163.000
41.55500 181.000
41.60000 160.000
41.64500 152.000
41.69000 162.000
41.73500 159.000
41.78000 164.000
41.82500 163.000
41.87000 145.000
41.91500 154.000
41.96000 179.000
42.00500 158.000
42.05000 151.000
42.09500 176.000
42.14000 154.000
42.18500 161.000
42.23000 168.000
42.27500 156.000
42.32000 167.000
42.36500 141.000
42.41000 165.000
42.45500 170.000
42.50000 158.000
42.54500 155.000
42.59000 168.000
42.63500 147.000
42.68000 165.000
42.72500 165.000
42.77000 164.000
42.81500 159.000
42.86000 161.000
42.90500 164.000
42.95000 146.000
42.99500 149.000
43.04000 153.000
43.08500 142.000
43.13000 177.000
43.17500 190.000
43.22000 166.000
43.26500 177.000
43.31000 157.000
43.35500 167.000
43.40000 175.000
43.44500 137.000
43.49000 164.000
43.53500 152.000
43.58000 171.000
43.62500 159.000
43.67000 155.000
43.71500 158.000
43.76000 158.000
43.80500 152.000
43.85000 170.000
43.89500 172.000
43.94000 149.000
43.98500 166.000
44.03000 151.000
44.07500 185.000
44.12000 154.000
44.16500 156.000
44.21000 143.000
44.25500 159.000
44.30000 141.000
44.34500 137.000
44.39000 157.000
44.43500 150.000
44.48000 155.000
44.52500 151.000
44.57000 160.000
44.61500 157.000
44.66000 165.000
44.70500 125.000
44.75000 134.000
44.79500 160.000
44.84000 154.000
44.88500 138.000
44.93000 150.000
44.97500 153.000
45.02000 145.000
45.06500 153.000
45.11000 135.000
45.15500 159.000
45.20000 149.000
45.24500 154.000
45.29000 121.000
45.33500 163.000
45.38000 138.000
45.42500 140.000
45.47000 154.000
45.51500 154.000
45.56000 169.000
45.60500 148.000
45.65000 145.000
45.69500 154.000
45.74000 138.000
45.78500 153.000
45.83000 138.000
45.87500 138.000
45.92000 123.000
45.96500 149.000
46.01000 132.000
46.05500 158.000
46.10000 154.000
46.14500 143.000
46.19000 144.000
46.23500 136.000
46.28000 142.000
46.32500 126.000
46.37000 131.000
46.41500 132.000
46.46000 144.000
46.50500 141.000
46.55000 128.000
46.59500 140.000
46.64000 152.000
46.68500 132.000
46.73000 155.000
46.77500 135.000
46.82000 127.000
46.86500 152.000
46.91000 132.000
46.95500 139.000
47.00000 132.000
47.04500 141.000
47.09000 153.000
47.13500 147.000
47.18000 117.000
47.22500 152.000
47.27000 134.000
47.31500 143.000
47.36000 142.000
47.40500 139.000
47.45000 133.000
47.49500 143.000
47.54000 161.000
47.58500 157.000
47.63000 132.000
47.67500 152.000
47.72000 133.000
47.76500 118.000
47.81000 135.000
47.85500 136.000
47.90000 141.000
47.94500 140.000
47.99000 132.000
48.03500 133.000
48.08000 118.000
48.12500 134.000
48.17000 122.000
48.21500 138.000
48.26000 132.000
48.30500 144.000
48.35000 129.000
48.39500 114.000
48.44000 115.000
48.48500 142.000
48.53000 146.000
48.57500 147.000
48.62000 129.000
48.66500 139.000
48.71000 122.000
48.75500 110.000
48.80000 132.000
48.84500 127.000
48.89000 125.000
48.93500 124.000
48.98000 132.000
49.02500 139.000
49.07000 121.000
49.11500 139.000
49.16000 120.000
49.20500 101.000
49.25000 122.000
49.29500 147.000
49.34000 126.000
49.38500 126.000
49.43000 152.000
49.47500 138.000
49.52000 125.000
49.56500 123.000
49.61000 124.000
49.65500 129.000
49.70000 122.000
49.74500 116.000
49.79000 123.000
49.83500 137.000
49.88000 130.000
49.92500 132.000
49.97000 127.000
50.01500 123.000
50.06000 122.000
50.10500 139.000
50.15000 119.000
50.19500 128.000
50.24000 126.000
50.28500 143.000
50.33000 113.000
50.37500 136.000
50.42000 123.000
50.46500 132.000
50.51000 140.000
50.55500 129.000
50.60000 131.000
50.64500 138.000
50.69000 122.000
50.73500 124.000
50.78000 127.000
50.82500 121.000
50.87000 121.000
50.91500 116.000
50.96000 125.000
51.00500 113.000
51.05000 113.000
51.09500 128.000
51.14000 115.000
51.18500 122.000
51.23000 121.000
51.27500 123.000
51.32000 134.000
51.36500 132.000
51.41000 128.000
51.45500 122.000
51.50000 132.000
51.54500 134.000
51.59000 118.000
51.63500 126.000
51.68000 135.000
51.72500 126.000
51.77000 115.000
51.81500 104.000
51.86000 125.000
51.90500 130.000
51.95000 111.000
51.99500 130.000
52.04000 110.000
52.08500 118.000
52.13000 124.000
52.17500 106.000
52.22000 122.000
52.26500 133.000
52.31000 139.000
52.35500 112.000
52.40000 122.000
52.44500 126.000
52.49000 126.000
52.53500 120.000
52.58000 126.000
52.62500 128.000
52.67000 131.000
52.71500 133.000
52.76000 130.000
52.80500 130.000
52.85000 116.000
52.89500 127.000
52.94000 118.000
52.98500 118.000
53.03000 117.000
53.07500 130.000
53.12000 129.000
53.16500 115.000
53.21000 130.000
53.25500 119.000
53.30000 138.000
53.34500 113.000
53.39000 122.000
53.43500 133.000
53.48000 115.000
53.52500 127.000
53.57000 118.000
53.61500 130.000
53.66000 114.000
53.70500 113.000
53.75000 113.000
53.79500 133.000
53.84000 116.000
53.88500 121.000
53.93000 127.000
53.97500 126.000
54.02000 113.000
54.06500 124.000
54.11000 120.000
54.15500 127.000
54.20000 113.000
54.24500 118.000
54.29000 118.000
54.33500 138.000
54.38000 123.000
54.42500 110.000
54.47000 125.000
54.51500 116.000
54.56000 126.000
54.60500 125.000
54.65000 125.000
54.69500 116.000
54.74000 123.000
54.78500 117.000
54.83000 118.000
54.87500 127.000
54.92000 130.000
54.96500 120.000
55.01000 129.000
55.05500 116.000
55.10000 118.000
55.14500 129.000
55.19000 114.000
55.23500 114.000
55.28000 116.000
55.32500 116.000
55.37000 128.000
55.41500 110.000
55.46000 128.000
55.50500 114.000
55.55000 114.000
55.59500 111.000
55.64000 113.000
55.68500 110.000
55.73000 123.000
55.77500 123.000
55.82000 121.000
55.86500 94.000
55.91000 120.000
55.95500 128.000
56.00000 97.000
56.04500 120.000
56.09000 119.000
56.13500 118.000
56.18000 139.000
56.22500 108.000
56.27000 130.000
56.31500 120.000
56.36000 121.000
56.40500 124.000
56.45000 112.000
56.49500 122.000
56.54000 103.000
56.58500 131.000
56.63000 118.000
56.67500 124.000
56.72000 109.000
56.76500 117.000
56.81000 117.000
56.85500 110.000
56.90000 104.000
56.94500 114.000
56.99000 114.000
57.03500 114.000
57.08000 107.000
57.12500 116.000
57.17000 130.000
57.21500 116.000
57.26000 110.000
57.30500 131.000
57.35000 116.000
57.39500 106.000
57.44000 118.000
57.48500 122.000
57.53000 113.000
57.57500 117.000
57.62000 127.000
57.66500 119.000
57.71000 114.000
57.75500 109.000
57.80000 124.000
57.84500 108.000
57.89000 113.000
57.93500 124.000
57.98000 124.000
58.02500 125.000
58.07000 113.000
58.11500 131.000
58.16000 112.000
58.20500 125.000
58.25000 101.000
58.29500 104.000
58.34000 111.000
58.38500 107.000
58.43000 109.000
58.47500 118.000
58.52000 120.000
58.56500 101.000
58.61000 108.000
58.65500 119.000
58.70000 116.000
58.74500 106.000
58.79000 123.000
58.83500 116.000
58.88000 101.000
58.92500 112.000
58.97000 117.000
59.01500 104.000
59.06000 99.000
59.10500 103.000
59.15000 110.000
59.19500 115.000
59.24000 100.000
59.28500 115.000
59.33000 106.000
59.37500 111.000
59.42000 110.000
59.46500 108.000
59.51000 96.000
59.55500 115.000
59.60000 101.000
59.64500 105.000
59.69000 112.000
59.73500 114.000
59.78000 99.000
59.82500 119.000
59.87000 111.000
59.91500 115.000
59.96000 119.000
60.00500 110.000
60.05000 99.000
60.09500 115.000
60.14000 120.000
60.18500 106.000
60.23000 110.000
60.27500 109.000
60.32000 114.000
60.36500 114.000
60.41000 106.000
60.45500 101.000
60.50000 113.000
60.54500 106.000
60.59000 119.000
60.63500 105.000
60.68000 99.000
60.72500 123.000
60.77000 115.000
60.81500 117.000
60.86000 100.000
60.90500 85.000
60.95000 113.000
60.99500 114.000
61.04000 109.000
61.08500 114.000
61.13000 118.000
61.17500 115.000
61.22000 97.000
61.26500 113.000
61.31000 104.000
61.35500 117.000
61.40000 94.000
61.44500 109.000
61.49000 108.000
61.53500 100.000
61.58000 112.000
61.62500 106.000
61.67000 119.000
61.71500 101.000
61.76000 118.000
61.80500 120.000
61.85000 106.000
61.89500 110.000
61.94000 110.000
61.98500 102.000