File: ISoD/xrd_data/HSC011_Kap_nicht_hochgenug_gefuelllt.xy
2.00000 1979.000
2.04500 1874.000
2.09000 1762.000
2.13500 1643.000
2.18000 1540.000
2.22500 1402.000
2.27000 1310.000
2.31500 1258.000
2.36000 1159.000
2.40500 1115.000
2.45000 1012.000
2.49500 939.000
2.54000 959.000
2.58500 882.000
2.63000 861.000
2.67500 765.000
2.72000 784.000
2.76500 702.000
2.81000 740.000
2.85500 702.000
2.90000 676.000
2.94500 619.000
2.99000 627.000
3.03500 555.000
3.08000 575.000
3.12500 561.000
3.17000 549.000
3.21500 523.000
3.26000 496.000
3.30500 468.000
3.35000 453.000
3.39500 456.000
3.44000 438.000
3.48500 404.000
3.53000 433.000
3.57500 443.000
3.62000 397.000
3.66500 390.000
3.71000 371.000
3.75500 373.000
3.80000 372.000
3.84500 366.000
3.89000 373.000
3.93500 382.000
3.98000 363.000
4.02500 357.000
4.07000 361.000
4.11500 336.000
4.16000 302.000
4.20500 332.000
4.25000 325.000
4.29500 297.000
4.34000 300.000
4.38500 320.000
4.43000 319.000
4.47500 299.000
4.52000 317.000
4.56500 298.000
4.61000 290.000
4.65500 286.000
4.70000 295.000
4.74500 269.000
4.79000 279.000
4.83500 286.000
4.88000 282.000
4.92500 278.000
4.97000 236.000
5.01500 292.000
5.06000 282.000
5.10500 275.000
5.15000 283.000
5.19500 282.000
5.24000 283.000
5.28500 261.000
5.33000 241.000
5.37500 272.000
5.42000 243.000
5.46500 256.000
5.51000 266.000
5.55500 248.000
5.60000 268.000
5.64500 273.000
5.69000 271.000
5.73500 257.000
5.78000 269.000
5.82500 277.000
5.87000 252.000
5.91500 239.000
5.96000 257.000
6.00500 259.000
6.05000 265.000
6.09500 233.000
6.14000 226.000
6.18500 247.000
6.23000 240.000
6.27500 255.000
6.32000 246.000
6.36500 226.000
6.41000 236.000
6.45500 242.000
6.50000 269.000
6.54500 224.000
6.59000 243.000
6.63500 251.000
6.68000 236.000
6.72500 221.000
6.77000 243.000
6.81500 224.000
6.86000 234.000
6.90500 238.000
6.95000 229.000
6.99500 242.000
7.04000 233.000
7.08500 231.000
7.13000 242.000
7.17500 220.000
7.22000 223.000
7.26500 232.000
7.31000 230.000
7.35500 240.000
7.40000 228.000
7.44500 231.000
7.49000 251.000
7.53500 220.000
7.58000 240.000
7.62500 210.000
7.67000 234.000
7.71500 252.000
7.76000 250.000
7.80500 223.000
7.85000 247.000
7.89500 232.000
7.94000 216.000
7.98500 245.000
8.03000 222.000
8.07500 226.000
8.12000 245.000
8.16500 261.000
8.21000 244.000
8.25500 228.000
8.30000 215.000
8.34500 217.000
8.39000 241.000
8.43500 228.000
8.48000 234.000
8.52500 274.000
8.57000 213.000
8.61500 249.000
8.66000 199.000
8.70500 232.000
8.75000 235.000
8.79500 238.000
8.84000 223.000
8.88500 227.000
8.93000 222.000
8.97500 222.000
9.02000 221.000
9.06500 229.000
9.11000 218.000
9.15500 232.000
9.20000 217.000
9.24500 237.000
9.29000 210.000
9.33500 217.000
9.38000 231.000
9.42500 208.000
9.47000 222.000
9.51500 232.000
9.56000 243.000
9.60500 208.000
9.65000 216.000
9.69500 233.000
9.74000 230.000
9.78500 232.000
9.83000 219.000
9.87500 244.000
9.92000 234.000
9.96500 246.000
10.01000 234.000
10.05500 220.000
10.10000 227.000
10.14500 227.000
10.19000 216.000
10.23500 217.000
10.28000 227.000
10.32500 229.000
10.37000 240.000
10.41500 240.000
10.46000 232.000
10.50500 226.000
10.55000 211.000
10.59500 230.000
10.64000 231.000
10.68500 218.000
10.73000 218.000
10.77500 246.000
10.82000 210.000
10.86500 235.000
10.91000 228.000
10.95500 214.000
11.00000 233.000
11.04500 219.000
11.09000 231.000
11.13500 233.000
11.18000 226.000
11.22500 266.000
11.27000 233.000
11.31500 229.000
11.36000 239.000
11.40500 246.000
11.45000 247.000
11.49500 265.000
11.54000 249.000
11.58500 279.000
11.63000 266.000
11.67500 266.000
11.72000 295.000
11.76500 288.000
11.81000 314.000
11.85500 310.000
11.90000 333.000
11.94500 337.000
11.99000 364.000
12.03500 346.000
12.08000 339.000
12.12500 353.000
12.17000 329.000
12.21500 324.000
12.26000 344.000
12.30500 329.000
12.35000 292.000
12.39500 292.000
12.44000 303.000
12.48500 287.000
12.53000 276.000
12.57500 283.000
12.62000 276.000
12.66500 271.000
12.71000 272.000
12.75500 240.000
12.80000 240.000
12.84500 269.000
12.89000 254.000
12.93500 266.000
12.98000 285.000
13.02500 240.000
13.07000 233.000
13.11500 277.000
13.16000 257.000
13.20500 237.000
13.25000 269.000
13.29500 232.000
13.34000 241.000
13.38500 232.000
13.43000 239.000
13.47500 239.000
13.52000 233.000
13.56500 230.000
13.61000 256.000
13.65500 254.000
13.70000 255.000
13.74500 248.000
13.79000 228.000
13.83500 229.000
13.88000 222.000
13.92500 240.000
13.97000 232.000
14.01500 237.000
14.06000 226.000
14.10500 244.000
14.15000 238.000
14.19500 256.000
14.24000 223.000
14.28500 224.000
14.33000 253.000
14.37500 227.000
14.42000 224.000
14.46500 221.000
14.51000 254.000
14.55500 250.000
14.60000 247.000
14.64500 242.000
14.69000 238.000
14.73500 229.000
14.78000 238.000
14.82500 262.000
14.87000 244.000
14.91500 234.000
14.96000 226.000
15.00500 225.000
15.05000 214.000
15.09500 235.000
15.14000 239.000
15.18500 233.000
15.23000 239.000
15.27500 261.000
15.32000 269.000
15.36500 244.000
15.41000 243.000
15.45500 248.000
15.50000 250.000
15.54500 232.000
15.59000 233.000
15.63500 250.000
15.68000 245.000
15.72500 249.000
15.77000 263.000
15.81500 244.000
15.86000 255.000
15.90500 247.000
15.95000 230.000
15.99500 219.000
16.04000 243.000
16.08500 247.000
16.13000 256.000
16.17500 222.000
16.22000 240.000
16.26500 250.000
16.31000 270.000
16.35500 263.000
16.40000 249.000
16.44500 248.000
16.49000 266.000
16.53500 233.000
16.58000 255.000
16.62500 247.000
16.67000 252.000
16.71500 244.000
16.76000 243.000
16.80500 211.000
16.85000 245.000
16.89500 241.000
16.94000 240.000
16.98500 243.000
17.03000 285.000
17.07500 251.000
17.12000 228.000
17.16500 242.000
17.21000 258.000
17.25500 267.000
17.30000 232.000
17.34500 218.000
17.39000 253.000
17.43500 255.000
17.48000 295.000
17.52500 270.000
17.57000 251.000
17.61500 258.000
17.66000 277.000
17.70500 265.000
17.75000 284.000
17.79500 253.000
17.84000 292.000
17.88500 287.000
17.93000 268.000
17.97500 274.000
18.02000 249.000
18.06500 283.000
18.11000 277.000
18.15500 265.000
18.20000 262.000
18.24500 275.000
18.29000 267.000
18.33500 283.000
18.38000 266.000
18.42500 280.000
18.47000 272.000
18.51500 277.000
18.56000 296.000
18.60500 283.000
18.65000 272.000
18.69500 287.000
18.74000 273.000
18.78500 254.000
18.83000 273.000
18.87500 276.000
18.92000 293.000
18.96500 289.000
19.01000 267.000
19.05500 279.000
19.10000 292.000
19.14500 284.000
19.19000 279.000
19.23500 279.000
19.28000 269.000
19.32500 289.000
19.37000 320.000
19.41500 295.000
19.46000 302.000
19.50500 296.000
19.55000 293.000
19.59500 282.000
19.64000 291.000
19.68500 285.000
19.73000 320.000
19.77500 295.000
19.82000 281.000
19.86500 288.000
19.91000 280.000
19.95500 275.000
20.00000 294.000
20.04500 302.000
20.09000 267.000
20.13500 294.000
20.18000 295.000
20.22500 305.000
20.27000 288.000
20.31500 317.000
20.36000 310.000
20.40500 307.000
20.45000 323.000
20.49500 312.000
20.54000 303.000
20.58500 338.000
20.63000 307.000
20.67500 317.000
20.72000 356.000
20.76500 321.000
20.81000 329.000
20.85500 342.000
20.90000 321.000
20.94500 309.000
20.99000 310.000
21.03500 346.000
21.08000 325.000
21.12500 318.000
21.17000 323.000
21.21500 364.000
21.26000 327.000
21.30500 332.000
21.35000 342.000
21.39500 338.000
21.44000 330.000
21.48500 345.000
21.53000 328.000
21.57500 330.000
21.62000 333.000
21.66500 352.000
21.71000 347.000
21.75500 338.000
21.80000 318.000
21.84500 336.000
21.89000 327.000
21.93500 329.000
21.98000 314.000
22.02500 324.000
22.07000 329.000
22.11500 312.000
22.16000 322.000
22.20500 325.000
22.25000 335.000
22.29500 374.000
22.34000 361.000
22.38500 333.000
22.43000 354.000
22.47500 352.000
22.52000 341.000
22.56500 347.000
22.61000 330.000
22.65500 348.000
22.70000 353.000
22.74500 330.000
22.79000 340.000
22.83500 362.000
22.88000 339.000
22.92500 333.000
22.97000 347.000
23.01500 311.000
23.06000 340.000
23.10500 329.000
23.15000 352.000
23.19500 366.000
23.24000 325.000
23.28500 376.000
23.33000 338.000
23.37500 328.000
23.42000 334.000
23.46500 367.000
23.51000 335.000
23.55500 383.000
23.60000 358.000
23.64500 362.000
23.69000 358.000
23.73500 367.000
23.78000 350.000
23.82500 364.000
23.87000 347.000
23.91500 365.000
23.96000 373.000
24.00500 361.000
24.05000 375.000
24.09500 341.000
24.14000 339.000
24.18500 361.000
24.23000 349.000
24.27500 338.000
24.32000 371.000
24.36500 338.000
24.41000 359.000
24.45500 366.000
24.50000 381.000
24.54500 367.000
24.59000 374.000
24.63500 354.000
24.68000 377.000
24.72500 368.000
24.77000 354.000
24.81500 371.000
24.86000 378.000
24.90500 353.000
24.95000 349.000
24.99500 362.000
25.04000 382.000
25.08500 380.000
25.13000 363.000
25.17500 362.000
25.22000 364.000
25.26500 372.000
25.31000 372.000
25.35500 346.000
25.40000 365.000
25.44500 365.000
25.49000 368.000
25.53500 362.000
25.58000 362.000
25.62500 340.000
25.67000 365.000
25.71500 373.000
25.76000 379.000
25.80500 366.000
25.85000 372.000
25.89500 378.000
25.94000 375.000
25.98500 366.000
26.03000 384.000
26.07500 381.000
26.12000 401.000
26.16500 397.000
26.21000 367.000
26.25500 349.000
26.30000 375.000
26.34500 384.000
26.39000 408.000
26.43500 421.000
26.48000 390.000
26.52500 383.000
26.57000 412.000
26.61500 393.000
26.66000 422.000
26.70500 429.000
26.75000 404.000
26.79500 433.000
26.84000 431.000
26.88500 441.000
26.93000 444.000
26.97500 459.000
27.02000 471.000
27.06500 493.000
27.11000 508.000
27.15500 515.000
27.20000 488.000
27.24500 499.000
27.29000 550.000
27.33500 582.000
27.38000 566.000
27.42500 535.000
27.47000 573.000
27.51500 589.000
27.56000 625.000
27.60500 600.000
27.65000 617.000
27.69500 572.000
27.74000 579.000
27.78500 585.000
27.83000 497.000
27.87500 494.000
27.92000 488.000
27.96500 501.000
28.01000 465.000
28.05500 427.000
28.10000 461.000
28.14500 473.000
28.19000 397.000
28.23500 414.000
28.28000 370.000
28.32500 369.000
28.37000 366.000
28.41500 388.000
28.46000 387.000
28.50500 373.000
28.55000 376.000
28.59500 350.000
28.64000 323.000
28.68500 357.000
28.73000 333.000
28.77500 317.000
28.82000 330.000
28.86500 345.000
28.91000 312.000
28.95500 335.000
29.00000 316.000
29.04500 328.000
29.09000 311.000
29.13500 335.000
29.18000 303.000
29.22500 325.000
29.27000 296.000
29.31500 342.000
29.36000 326.000
29.40500 295.000
29.45000 307.000
29.49500 337.000
29.54000 304.000
29.58500 291.000
29.63000 296.000
29.67500 297.000
29.72000 280.000
29.76500 312.000
29.81000 330.000
29.85500 304.000
29.90000 280.000
29.94500 283.000
29.99000 302.000
30.03500 306.000
30.08000 291.000
30.12500 305.000
30.17000 263.000
30.21500 287.000
30.26000 286.000
30.30500 284.000
30.35000 264.000
30.39500 283.000
30.44000 295.000
30.48500 291.000
30.53000 280.000
30.57500 253.000
30.62000 258.000
30.66500 281.000
30.71000 284.000
30.75500 280.000
30.80000 291.000
30.84500 272.000
30.89000 256.000
30.93500 273.000
30.98000 271.000
31.02500 282.000
31.07000 272.000
31.11500 251.000
31.16000 292.000
31.20500 237.000
31.25000 258.000
31.29500 271.000
31.34000 247.000
31.38500 261.000
31.43000 276.000
31.47500 275.000
31.52000 285.000
31.56500 209.000
31.61000 276.000
31.65500 261.000
31.70000 252.000
31.74500 252.000
31.79000 270.000
31.83500 260.000
31.88000 263.000
31.92500 268.000
31.97000 258.000
32.01500 264.000
32.06000 276.000
32.10500 257.000
32.15000 268.000
32.19500 264.000
32.24000 265.000
32.28500 239.000
32.33000 236.000
32.37500 251.000
32.42000 257.000
32.46500 257.000
32.51000 239.000
32.55500 240.000
32.60000 228.000
32.64500 242.000
32.69000 244.000
32.73500 233.000
32.78000 231.000
32.82500 231.000
32.87000 220.000
32.91500 226.000
32.96000 235.000
33.00500 239.000
33.05000 246.000
33.09500 209.000
33.14000 228.000
33.18500 229.000
33.23000 218.000
33.27500 223.000
33.32000 214.000
33.36500 222.000
33.41000 231.000
33.45500 206.000
33.50000 233.000
33.54500 220.000
33.59000 222.000
33.63500 206.000
33.68000 226.000
33.72500 207.000
33.77000 203.000
33.81500 213.000
33.86000 197.000
33.90500 212.000
33.95000 207.000
33.99500 197.000
34.04000 210.000
34.08500 209.000
34.13000 200.000
34.17500 197.000
34.22000 206.000
34.26500 184.000
34.31000 204.000
34.35500 186.000
34.40000 198.000
34.44500 192.000
34.49000 190.000
34.53500 195.000
34.58000 200.000
34.62500 191.000
34.67000 179.000
34.71500 176.000
34.76000 190.000
34.80500 198.000
34.85000 173.000
34.89500 188.000
34.94000 208.000
34.98500 184.000
35.03000 167.000
35.07500 183.000
35.12000 183.000
35.16500 180.000
35.21000 203.000
35.25500 168.000
35.30000 177.000
35.34500 179.000
35.39000 203.000
35.43500 165.000
35.48000 168.000
35.52500 165.000
35.57000 187.000
35.61500 171.000
35.66000 202.000
35.70500 164.000
35.75000 181.000
35.79500 181.000
35.84000 187.000
35.88500 171.000
35.93000 180.000
35.97500 174.000
36.02000 161.000
36.06500 166.000
36.11000 177.000
36.15500 169.000
36.20000 178.000
36.24500 196.000
36.29000 172.000
36.33500 177.000
36.38000 176.000
36.42500 177.000
36.47000 164.000
36.51500 161.000
36.56000 182.000
36.60500 157.000
36.65000 175.000
36.69500 158.000
36.74000 168.000
36.78500 179.000
36.83000 156.000
36.87500 164.000
36.92000 166.000
36.96500 164.000
37.01000 165.000
37.05500 156.000
37.10000 161.000
37.14500 169.000
37.19000 176.000
37.23500 149.000
37.28000 145.000
37.32500 166.000
37.37000 164.000
37.41500 164.000
37.46000 153.000
37.50500 153.000
37.55000 160.000
37.59500 166.000
37.64000 140.000
37.68500 164.000
37.73000 153.000
37.77500 140.000
37.82000 148.000
37.86500 151.000
37.91000 155.000
37.95500 155.000
38.00000 149.000
38.04500 144.000
38.09000 163.000
38.13500 141.000
38.18000 160.000
38.22500 150.000
38.27000 153.000
38.31500 138.000
38.36000 161.000
38.40500 159.000
38.45000 162.000
38.49500 141.000
38.54000 142.000
38.58500 150.000
38.63000 144.000
38.67500 138.000
38.72000 153.000
38.76500 169.000
38.81000 147.000
38.85500 154.000
38.90000 140.000
38.94500 147.000
38.99000 144.000
39.03500 157.000
39.08000 131.000
39.12500 139.000
39.17000 144.000
39.21500 140.000
39.26000 148.000
39.30500 146.000
39.35000 176.000
39.39500 143.000
39.44000 144.000
39.48500 139.000
39.53000 146.000
39.57500 160.000
39.62000 136.000
39.66500 160.000
39.71000 133.000
39.75500 145.000
39.80000 142.000
39.84500 157.000
39.89000 151.000
39.93500 150.000
39.98000 161.000
40.02500 140.000
40.07000 146.000
40.11500 131.000
40.16000 140.000
40.20500 143.000
40.25000 144.000
40.29500 161.000
40.34000 149.000
40.38500 132.000
40.43000 160.000
40.47500 150.000
40.52000 151.000
40.56500 147.000
40.61000 133.000
40.65500 148.000
40.70000 133.000
40.74500 149.000
40.79000 145.000
40.83500 126.000
40.88000 138.000
40.92500 156.000
40.97000 132.000
41.01500 126.000
41.06000 139.000
41.10500 141.000
41.15000 151.000
41.19500 140.000
41.24000 131.000
41.28500 149.000
41.33000 153.000
41.37500 129.000
41.42000 146.000
41.46500 160.000
41.51000 133.000
41.55500 140.000
41.60000 156.000
41.64500 141.000
41.69000 144.000
41.73500 136.000
41.78000 135.000
41.82500 158.000
41.87000 168.000
41.91500 156.000
41.96000 161.000
42.00500 136.000
42.05000 162.000
42.09500 144.000
42.14000 130.000
42.18500 149.000
42.23000 164.000
42.27500 140.000
42.32000 149.000
42.36500 153.000
42.41000 163.000
42.45500 147.000
42.50000 172.000
42.54500 160.000
42.59000 155.000
42.63500 161.000
42.68000 153.000
42.72500 140.000
42.77000 144.000
42.81500 150.000
42.86000 148.000
42.90500 176.000
42.95000 176.000
42.99500 165.000
43.04000 157.000
43.08500 164.000
43.13000 165.000
43.17500 174.000
43.22000 159.000
43.26500 165.000
43.31000 162.000
43.35500 144.000
43.40000 155.000
43.44500 157.000
43.49000 152.000
43.53500 160.000
43.58000 148.000
43.62500 157.000
43.67000 143.000
43.71500 157.000
43.76000 149.000
43.80500 142.000
43.85000 152.000
43.89500 144.000
43.94000 142.000
43.98500 166.000
44.03000 160.000
44.07500 150.000
44.12000 129.000
44.16500 163.000
44.21000 129.000
44.25500 142.000
44.30000 171.000
44.34500 151.000
44.39000 143.000
44.43500 137.000
44.48000 151.000
44.52500 153.000
44.57000 148.000
44.61500 150.000
44.66000 151.000
44.70500 158.000
44.75000 144.000
44.79500 151.000
44.84000 149.000
44.88500 152.000
44.93000 139.000
44.97500 158.000
45.02000 148.000
45.06500 142.000
45.11000 147.000
45.15500 119.000
45.20000 153.000
45.24500 142.000
45.29000 153.000
45.33500 148.000
45.38000 146.000
45.42500 150.000
45.47000 125.000
45.51500 127.000
45.56000 145.000
45.60500 138.000
45.65000 145.000
45.69500 138.000
45.74000 142.000
45.78500 137.000
45.83000 140.000
45.87500 127.000
45.92000 121.000
45.96500 133.000
46.01000 154.000
46.05500 115.000
46.10000 146.000
46.14500 123.000
46.19000 154.000
46.23500 142.000
46.28000 139.000
46.32500 129.000
46.37000 123.000
46.41500 131.000
46.46000 125.000
46.50500 152.000
46.55000 118.000
46.59500 140.000
46.64000 144.000
46.68500 106.000
46.73000 116.000
46.77500 135.000
46.82000 119.000
46.86500 118.000
46.91000 119.000
46.95500 124.000
47.00000 123.000
47.04500 121.000
47.09000 124.000
47.13500 124.000
47.18000 122.000
47.22500 119.000
47.27000 136.000
47.31500 150.000
47.36000 122.000
47.40500 142.000
47.45000 142.000
47.49500 125.000
47.54000 109.000
47.58500 128.000
47.63000 137.000
47.67500 121.000
47.72000 117.000
47.76500 128.000
47.81000 118.000
47.85500 123.000
47.90000 131.000
47.94500 115.000
47.99000 127.000
48.03500 130.000
48.08000 119.000
48.12500 117.000
48.17000 122.000
48.21500 116.000
48.26000 120.000
48.30500 100.000
48.35000 131.000
48.39500 117.000
48.44000 122.000
48.48500 112.000
48.53000 106.000
48.57500 104.000
48.62000 122.000
48.66500 112.000
48.71000 116.000
48.75500 114.000
48.80000 121.000
48.84500 109.000
48.89000 115.000
48.93500 113.000
48.98000 122.000
49.02500 103.000
49.07000 117.000
49.11500 116.000
49.16000 113.000
49.20500 106.000
49.25000 119.000
49.29500 139.000
49.34000 120.000
49.38500 108.000
49.43000 119.000
49.47500 125.000
49.52000 109.000
49.56500 120.000
49.61000 123.000
49.65500 103.000
49.70000 106.000
49.74500 107.000
49.79000 114.000
49.83500 125.000
49.88000 121.000
49.92500 124.000
49.97000 101.000
50.01500 134.000
50.06000 109.000
50.10500 114.000
50.15000 134.000
50.19500 116.000
50.24000 99.000
50.28500 113.000
50.33000 120.000
50.37500 110.000
50.42000 109.000
50.46500 108.000
50.51000 107.000
50.55500 114.000
50.60000 113.000
50.64500 108.000
50.69000 104.000
50.73500 100.000
50.78000 113.000
50.82500 113.000
50.87000 108.000
50.91500 103.000
50.96000 92.000
51.00500 107.000
51.05000 110.000
51.09500 95.000
51.14000 116.000
51.18500 105.000
51.23000 102.000
51.27500 112.000
51.32000 102.000
51.36500 97.000
51.41000 112.000
51.45500 106.000
51.50000 110.000
51.54500 103.000
51.59000 108.000
51.63500 120.000
51.68000 110.000
51.72500 122.000
51.77000 99.000
51.81500 123.000
51.86000 105.000
51.90500 113.000
51.95000 112.000
51.99500 116.000
52.04000 93.000
52.08500 103.000
52.13000 116.000
52.17500 104.000
52.22000 106.000
52.26500 113.000
52.31000 92.000
52.35500 111.000
52.40000 108.000
52.44500 92.000
52.49000 108.000
52.53500 121.000
52.58000 109.000
52.62500 108.000
52.67000 113.000
52.71500 114.000
52.76000 116.000
52.80500 105.000
52.85000 112.000
52.89500 108.000
52.94000 100.000
52.98500 99.000
53.03000 119.000
53.07500 113.000
53.12000 116.000
53.16500 107.000
53.21000 94.000
53.25500 103.000
53.30000 99.000
53.34500 124.000
53.39000 108.000
53.43500 100.000
53.48000 112.000
53.52500 106.000
53.57000 113.000
53.61500 115.000
53.66000 118.000
53.70500 117.000
53.75000 101.000
53.79500 119.000
53.84000 122.000
53.88500 120.000
53.93000 90.000
53.97500 109.000
54.02000 106.000
54.06500 113.000
54.11000 109.000
54.15500 106.000
54.20000 111.000
54.24500 101.000
54.29000 114.000
54.33500 108.000
54.38000 106.000
54.42500 103.000
54.47000 126.000
54.51500 111.000
54.56000 115.000
54.60500 98.000
54.65000 109.000
54.69500 105.000
54.74000 101.000
54.78500 109.000
54.83000 127.000
54.87500 99.000
54.92000 101.000
54.96500 104.000
55.01000 110.000
55.05500 117.000
55.10000 114.000
55.14500 115.000
55.19000 98.000
55.23500 107.000
55.28000 121.000
55.32500 97.000
55.37000 111.000
55.41500 121.000
55.46000 124.000
55.50500 120.000
55.55000 119.000
55.59500 118.000
55.64000 106.000
55.68500 121.000
55.73000 124.000
55.77500 115.000
55.82000 131.000
55.86500 107.000
55.91000 116.000
55.95500 97.000
56.00000 101.000
56.04500 106.000
56.09000 98.000
56.13500 123.000
56.18000 122.000
56.22500 115.000
56.27000 113.000
56.31500 113.000
56.36000 104.000
56.40500 112.000
56.45000 104.000
56.49500 123.000
56.54000 113.000
56.58500 98.000
56.63000 101.000
56.67500 126.000
56.72000 125.000
56.76500 124.000
56.81000 105.000
56.85500 113.000
56.90000 107.000
56.94500 103.000
56.99000 120.000
57.03500 128.000
57.08000 113.000
57.12500 111.000
57.17000 108.000
57.21500 107.000
57.26000 118.000
57.30500 125.000
57.35000 115.000
57.39500 108.000
57.44000 111.000
57.48500 114.000
57.53000 107.000
57.57500 105.000
57.62000 125.000
57.66500 110.000
57.71000 106.000
57.75500 104.000
57.80000 102.000
57.84500 108.000
57.89000 119.000
57.93500 111.000
57.98000 115.000
58.02500 101.000
58.07000 108.000
58.11500 107.000
58.16000 110.000
58.20500 104.000
58.25000 103.000
58.29500 106.000
58.34000 111.000
58.38500 97.000
58.43000 93.000
58.47500 113.000
58.52000 104.000
58.56500 96.000
58.61000 110.000
58.65500 102.000
58.70000 113.000
58.74500 113.000
58.79000 104.000
58.83500 103.000
58.88000 103.000
58.92500 102.000
58.97000 107.000
59.01500 110.000
59.06000 113.000
59.10500 107.000
59.15000 109.000
59.19500 110.000
59.24000 102.000
59.28500 100.000
59.33000 90.000
59.37500 87.000
59.42000 111.000
59.46500 106.000
59.51000 110.000
59.55500 99.000
59.60000 103.000
59.64500 95.000
59.69000 92.000
59.73500 99.000
59.78000 102.000
59.82500 94.000
59.87000 112.000
59.91500 123.000
59.96000 110.000
60.00500 116.000
60.05000 112.000
60.09500 105.000
60.14000 93.000
60.18500 98.000
60.23000 93.000
60.27500 113.000
60.32000 104.000
60.36500 98.000
60.41000 104.000
60.45500 105.000
60.50000 90.000
60.54500 78.000
60.59000 112.000
60.63500 118.000
60.68000 105.000
60.72500 97.000
60.77000 105.000
60.81500 96.000
60.86000 99.000
60.90500 97.000
60.95000 90.000
60.99500 130.000
61.04000 92.000
61.08500 102.000
61.13000 104.000
61.17500 96.000
61.22000 96.000
61.26500 115.000
61.31000 106.000
61.35500 107.000
61.40000 102.000
61.44500 102.000
61.49000 98.000
61.53500 87.000
61.58000 90.000
61.62500 90.000
61.67000 103.000
61.71500 90.000
61.76000 98.000
61.80500 99.000
61.85000 101.000
61.89500 106.000
61.94000 108.000
61.98500 105.000