File: ISoD/xrd_data/HSC031.xy
2.00000    1115.000
2.04500    1058.000
2.09000    991.000
2.13500    918.000
2.18000    876.000
2.22500    764.000
2.27000    776.000
2.31500    722.000
2.36000    667.000
2.40500    618.000
2.45000    624.000
2.49500    603.000
2.54000    584.000
2.58500    535.000
2.63000    499.000
2.67500    507.000
2.72000    483.000
2.76500    491.000
2.81000    424.000
2.85500    424.000
2.90000    455.000
2.94500    427.000
2.99000    369.000
3.03500    383.000
3.08000    335.000
3.12500    371.000
3.17000    350.000
3.21500    369.000
3.26000    343.000
3.30500    319.000
3.35000    320.000
3.39500    306.000
3.44000    295.000
3.48500    324.000
3.53000    309.000
3.57500    288.000
3.62000    295.000
3.66500    284.000
3.71000    276.000
3.75500    255.000
3.80000    273.000
3.84500    260.000
3.89000    278.000
3.93500    253.000
3.98000    246.000
4.02500    266.000
4.07000    248.000
4.11500    231.000
4.16000    247.000
4.20500    235.000
4.25000    246.000
4.29500    236.000
4.34000    243.000
4.38500    240.000
4.43000    230.000
4.47500    239.000
4.52000    213.000
4.56500    233.000
4.61000    224.000
4.65500    231.000
4.70000    223.000
4.74500    206.000
4.79000    250.000
4.83500    225.000
4.88000    221.000
4.92500    241.000
4.97000    226.000
5.01500    230.000
5.06000    204.000
5.10500    223.000
5.15000    198.000
5.19500    198.000
5.24000    202.000
5.28500    211.000
5.33000    225.000
5.37500    211.000
5.42000    221.000
5.46500    228.000
5.51000    201.000
5.55500    218.000
5.60000    203.000
5.64500    186.000
5.69000    203.000
5.73500    201.000
5.78000    198.000
5.82500    199.000
5.87000    219.000
5.91500    224.000
5.96000    193.000
6.00500    218.000
6.05000    210.000
6.09500    199.000
6.14000    203.000
6.18500    194.000
6.23000    213.000
6.27500    208.000
6.32000    187.000
6.36500    197.000
6.41000    193.000
6.45500    203.000
6.50000    188.000
6.54500    193.000
6.59000    188.000
6.63500    202.000
6.68000    212.000
6.72500    215.000
6.77000    210.000
6.81500    193.000
6.86000    197.000
6.90500    192.000
6.95000    183.000
6.99500    212.000
7.04000    217.000
7.08500    192.000
7.13000    193.000
7.17500    197.000
7.22000    210.000
7.26500    216.000
7.31000    195.000
7.35500    208.000
7.40000    207.000
7.44500    216.000
7.49000    221.000
7.53500    212.000
7.58000    229.000
7.62500    222.000
7.67000    232.000
7.71500    240.000
7.76000    262.000
7.80500    276.000
7.85000    266.000
7.89500    293.000
7.94000    298.000
7.98500    304.000
8.03000    281.000
8.07500    299.000
8.12000    295.000
8.16500    306.000
8.21000    306.000
8.25500    309.000
8.30000    310.000
8.34500    304.000
8.39000    297.000
8.43500    295.000
8.48000    266.000
8.52500    271.000
8.57000    275.000
8.61500    267.000
8.66000    253.000
8.70500    251.000
8.75000    234.000
8.79500    239.000
8.84000    236.000
8.88500    243.000
8.93000    213.000
8.97500    226.000
9.02000    228.000
9.06500    225.000
9.11000    229.000
9.15500    209.000
9.20000    207.000
9.24500    208.000
9.29000    199.000
9.33500    202.000
9.38000    206.000
9.42500    186.000
9.47000    222.000
9.51500    187.000
9.56000    190.000
9.60500    200.000
9.65000    190.000
9.69500    203.000
9.74000    216.000
9.78500    183.000
9.83000    187.000
9.87500    174.000
9.92000    199.000
9.96500    182.000
10.01000    202.000
10.05500    201.000
10.10000    198.000
10.14500    186.000
10.19000    207.000
10.23500    195.000
10.28000    184.000
10.32500    200.000
10.37000    199.000
10.41500    202.000
10.46000    211.000
10.50500    202.000
10.55000    182.000
10.59500    176.000
10.64000    185.000
10.68500    198.000
10.73000    213.000
10.77500    171.000
10.82000    205.000
10.86500    182.000
10.91000    195.000
10.95500    175.000
11.00000    198.000
11.04500    182.000
11.09000    173.000
11.13500    192.000
11.18000    211.000
11.22500    167.000
11.27000    180.000
11.31500    190.000
11.36000    193.000
11.40500    193.000
11.45000    204.000
11.49500    197.000
11.54000    194.000
11.58500    208.000
11.63000    200.000
11.67500    214.000
11.72000    192.000
11.76500    220.000
11.81000    199.000
11.85500    209.000
11.90000    189.000
11.94500    228.000
11.99000    215.000
12.03500    216.000
12.08000    222.000
12.12500    215.000
12.17000    223.000
12.21500    201.000
12.26000    219.000
12.30500    194.000
12.35000    204.000
12.39500    205.000
12.44000    207.000
12.48500    199.000
12.53000    200.000
12.57500    196.000
12.62000    201.000
12.66500    173.000
12.71000    195.000
12.75500    179.000
12.80000    194.000
12.84500    195.000
12.89000    183.000
12.93500    189.000
12.98000    196.000
13.02500    198.000
13.07000    195.000
13.11500    192.000
13.16000    209.000
13.20500    195.000
13.25000    178.000
13.29500    183.000
13.34000    192.000
13.38500    176.000
13.43000    197.000
13.47500    179.000
13.52000    191.000
13.56500    197.000
13.61000    191.000
13.65500    191.000
13.70000    179.000
13.74500    174.000
13.79000    200.000
13.83500    213.000
13.88000    208.000
13.92500    197.000
13.97000    206.000
14.01500    197.000
14.06000    210.000
14.10500    199.000
14.15000    193.000
14.19500    196.000
14.24000    196.000
14.28500    191.000
14.33000    199.000
14.37500    183.000
14.42000    201.000
14.46500    194.000
14.51000    192.000
14.55500    213.000
14.60000    195.000
14.64500    197.000
14.69000    202.000
14.73500    206.000
14.78000    192.000
14.82500    205.000
14.87000    199.000
14.91500    186.000
14.96000    203.000
15.00500    182.000
15.05000    195.000
15.09500    184.000
15.14000    183.000
15.18500    197.000
15.23000    198.000
15.27500    192.000
15.32000    191.000
15.36500    189.000
15.41000    179.000
15.45500    186.000
15.50000    188.000
15.54500    180.000
15.59000    215.000
15.63500    175.000
15.68000    204.000
15.72500    205.000
15.77000    175.000
15.81500    195.000
15.86000    186.000
15.90500    192.000
15.95000    170.000
15.99500    183.000
16.04000    192.000
16.08500    198.000
16.13000    181.000
16.17500    221.000
16.22000    216.000
16.26500    173.000
16.31000    192.000
16.35500    211.000
16.40000    183.000
16.44500    211.000
16.49000    214.000
16.53500    186.000
16.58000    214.000
16.62500    216.000
16.67000    209.000
16.71500    203.000
16.76000    206.000
16.80500    197.000
16.85000    186.000
16.89500    193.000
16.94000    194.000
16.98500    207.000
17.03000    219.000
17.07500    210.000
17.12000    217.000
17.16500    205.000
17.21000    204.000
17.25500    204.000
17.30000    191.000
17.34500    231.000
17.39000    215.000
17.43500    214.000
17.48000    208.000
17.52500    198.000
17.57000    193.000
17.61500    197.000
17.66000    211.000
17.70500    204.000
17.75000    192.000
17.79500    221.000
17.84000    191.000
17.88500    202.000
17.93000    217.000
17.97500    234.000
18.02000    207.000
18.06500    228.000
18.11000    205.000
18.15500    195.000
18.20000    215.000
18.24500    233.000
18.29000    220.000
18.33500    222.000
18.38000    206.000
18.42500    209.000
18.47000    198.000
18.51500    219.000
18.56000    208.000
18.60500    218.000
18.65000    222.000
18.69500    219.000
18.74000    235.000
18.78500    219.000
18.83000    224.000
18.87500    224.000
18.92000    235.000
18.96500    229.000
19.01000    239.000
19.05500    222.000
19.10000    215.000
19.14500    248.000
19.19000    252.000
19.23500    221.000
19.28000    231.000
19.32500    230.000
19.37000    232.000
19.41500    207.000
19.46000    232.000
19.50500    263.000
19.55000    235.000
19.59500    263.000
19.64000    225.000
19.68500    228.000
19.73000    245.000
19.77500    242.000
19.82000    236.000
19.86500    215.000
19.91000    229.000
19.95500    232.000
20.00000    224.000
20.04500    249.000
20.09000    251.000
20.13500    220.000
20.18000    254.000
20.22500    234.000
20.27000    262.000
20.31500    262.000
20.36000    226.000
20.40500    220.000
20.45000    213.000
20.49500    265.000
20.54000    255.000
20.58500    270.000
20.63000    263.000
20.67500    264.000
20.72000    282.000
20.76500    275.000
20.81000    259.000
20.85500    266.000
20.90000    289.000
20.94500    282.000
20.99000    266.000
21.03500    297.000
21.08000    275.000
21.12500    295.000
21.17000    273.000
21.21500    311.000
21.26000    265.000
21.30500    256.000
21.35000    299.000
21.39500    269.000
21.44000    288.000
21.48500    280.000
21.53000    262.000
21.57500    302.000
21.62000    268.000
21.66500    258.000
21.71000    289.000
21.75500    284.000
21.80000    252.000
21.84500    276.000
21.89000    279.000
21.93500    293.000
21.98000    258.000
22.02500    277.000
22.07000    287.000
22.11500    283.000
22.16000    273.000
22.20500    272.000
22.25000    267.000
22.29500    264.000
22.34000    285.000
22.38500    289.000
22.43000    285.000
22.47500    248.000
22.52000    287.000
22.56500    296.000
22.61000    271.000
22.65500    279.000
22.70000    277.000
22.74500    245.000
22.79000    285.000
22.83500    284.000
22.88000    294.000
22.92500    270.000
22.97000    245.000
23.01500    293.000
23.06000    284.000
23.10500    307.000
23.15000    270.000
23.19500    281.000
23.24000    279.000
23.28500    282.000
23.33000    283.000
23.37500    271.000
23.42000    305.000
23.46500    281.000
23.51000    288.000
23.55500    271.000
23.60000    297.000
23.64500    290.000
23.69000    294.000
23.73500    307.000
23.78000    285.000
23.82500    252.000
23.87000    295.000
23.91500    284.000
23.96000    325.000
24.00500    302.000
24.05000    306.000
24.09500    303.000
24.14000    306.000
24.18500    283.000
24.23000    295.000
24.27500    306.000
24.32000    311.000
24.36500    313.000
24.41000    324.000
24.45500    308.000
24.50000    308.000
24.54500    291.000
24.59000    287.000
24.63500    310.000
24.68000    267.000
24.72500    330.000
24.77000    296.000
24.81500    308.000
24.86000    289.000
24.90500    311.000
24.95000    311.000
24.99500    318.000
25.04000    321.000
25.08500    309.000
25.13000    283.000
25.17500    321.000
25.22000    333.000
25.26500    313.000
25.31000    313.000
25.35500    311.000
25.40000    322.000
25.44500    323.000
25.49000    324.000
25.53500    325.000
25.58000    335.000
25.62500    341.000
25.67000    307.000
25.71500    322.000
25.76000    331.000
25.80500    343.000
25.85000    340.000
25.89500    325.000
25.94000    348.000
25.98500    320.000
26.03000    349.000
26.07500    331.000
26.12000    340.000
26.16500    363.000
26.21000    373.000
26.25500    361.000
26.30000    368.000
26.34500    348.000
26.39000    401.000
26.43500    412.000
26.48000    413.000
26.52500    434.000
26.57000    483.000
26.61500    440.000
26.66000    532.000
26.70500    490.000
26.75000    536.000
26.79500    531.000
26.84000    526.000
26.88500    550.000
26.93000    534.000
26.97500    516.000
27.02000    494.000
27.06500    524.000
27.11000    513.000
27.15500    496.000
27.20000    506.000
27.24500    489.000
27.29000    471.000
27.33500    535.000
27.38000    512.000
27.42500    485.000
27.47000    490.000
27.51500    498.000
27.56000    470.000
27.60500    496.000
27.65000    498.000
27.69500    494.000
27.74000    501.000
27.78500    512.000
27.83000    485.000
27.87500    506.000
27.92000    480.000
27.96500    473.000
28.01000    472.000
28.05500    478.000
28.10000    477.000
28.14500    419.000
28.19000    440.000
28.23500    417.000
28.28000    441.000
28.32500    402.000
28.37000    410.000
28.41500    402.000
28.46000    422.000
28.50500    399.000
28.55000    370.000
28.59500    368.000
28.64000    347.000
28.68500    374.000
28.73000    367.000
28.77500    357.000
28.82000    354.000
28.86500    345.000
28.91000    348.000
28.95500    334.000
29.00000    378.000
29.04500    364.000
29.09000    381.000
29.13500    401.000
29.18000    354.000
29.22500    393.000
29.27000    365.000
29.31500    392.000
29.36000    361.000
29.40500    376.000
29.45000    363.000
29.49500    368.000
29.54000    365.000
29.58500    358.000
29.63000    356.000
29.67500    337.000
29.72000    304.000
29.76500    337.000
29.81000    306.000
29.85500    325.000
29.90000    317.000
29.94500    311.000
29.99000    292.000
30.03500    323.000
30.08000    277.000
30.12500    300.000
30.17000    313.000
30.21500    289.000
30.26000    278.000
30.30500    280.000
30.35000    285.000
30.39500    290.000
30.44000    279.000
30.48500    291.000
30.53000    259.000
30.57500    275.000
30.62000    298.000
30.66500    256.000
30.71000    270.000
30.75500    250.000
30.80000    269.000
30.84500    283.000
30.89000    258.000
30.93500    257.000
30.98000    237.000
31.02500    263.000
31.07000    256.000
31.11500    261.000
31.16000    255.000
31.20500    239.000
31.25000    247.000
31.29500    261.000
31.34000    273.000
31.38500    258.000
31.43000    233.000
31.47500    234.000
31.52000    254.000
31.56500    234.000
31.61000    243.000
31.65500    236.000
31.70000    228.000
31.74500    225.000
31.79000    220.000
31.83500    217.000
31.88000    254.000
31.92500    230.000
31.97000    236.000
32.01500    243.000
32.06000    270.000
32.10500    243.000
32.15000    216.000
32.19500    237.000
32.24000    238.000
32.28500    238.000
32.33000    236.000
32.37500    235.000
32.42000    237.000
32.46500    239.000
32.51000    239.000
32.55500    243.000
32.60000    221.000
32.64500    238.000
32.69000    245.000
32.73500    237.000
32.78000    219.000
32.82500    212.000
32.87000    225.000
32.91500    232.000
32.96000    224.000
33.00500    219.000
33.05000    210.000
33.09500    191.000
33.14000    206.000
33.18500    222.000
33.23000    188.000
33.27500    212.000
33.32000    222.000
33.36500    201.000
33.41000    198.000
33.45500    201.000
33.50000    207.000
33.54500    202.000
33.59000    209.000
33.63500    216.000
33.68000    205.000
33.72500    206.000
33.77000    187.000
33.81500    203.000
33.86000    207.000
33.90500    201.000
33.95000    189.000
33.99500    199.000
34.04000    211.000
34.08500    214.000
34.13000    200.000
34.17500    206.000
34.22000    208.000
34.26500    200.000
34.31000    184.000
34.35500    180.000
34.40000    176.000
34.44500    198.000
34.49000    194.000
34.53500    211.000
34.58000    182.000
34.62500    179.000
34.67000    191.000
34.71500    184.000
34.76000    198.000
34.80500    186.000
34.85000    189.000
34.89500    176.000
34.94000    174.000
34.98500    182.000
35.03000    165.000
35.07500    183.000
35.12000    181.000
35.16500    173.000
35.21000    190.000
35.25500    193.000
35.30000    166.000
35.34500    178.000
35.39000    199.000
35.43500    203.000
35.48000    191.000
35.52500    181.000
35.57000    194.000
35.61500    187.000
35.66000    184.000
35.70500    196.000
35.75000    179.000
35.79500    178.000
35.84000    199.000
35.88500    200.000
35.93000    189.000
35.97500    176.000
36.02000    177.000
36.06500    172.000
36.11000    191.000
36.15500    189.000
36.20000    183.000
36.24500    166.000
36.29000    169.000
36.33500    165.000
36.38000    186.000
36.42500    182.000
36.47000    182.000
36.51500    181.000
36.56000    178.000
36.60500    168.000
36.65000    163.000
36.69500    171.000
36.74000    184.000
36.78500    191.000
36.83000    157.000
36.87500    183.000
36.92000    167.000
36.96500    166.000
37.01000    183.000
37.05500    168.000
37.10000    181.000
37.14500    163.000
37.19000    163.000
37.23500    168.000
37.28000    178.000
37.32500    175.000
37.37000    166.000
37.41500    154.000
37.46000    156.000
37.50500    157.000
37.55000    164.000
37.59500    171.000
37.64000    152.000
37.68500    193.000
37.73000    177.000
37.77500    166.000
37.82000    159.000
37.86500    161.000
37.91000    158.000
37.95500    163.000
38.00000    149.000
38.04500    147.000
38.09000    150.000
38.13500    158.000
38.18000    142.000
38.22500    159.000
38.27000    164.000
38.31500    146.000
38.36000    169.000
38.40500    155.000
38.45000    153.000
38.49500    166.000
38.54000    139.000
38.58500    164.000
38.63000    159.000
38.67500    152.000
38.72000    171.000
38.76500    140.000
38.81000    166.000
38.85500    155.000
38.90000    155.000
38.94500    155.000
38.99000    140.000
39.03500    144.000
39.08000    148.000
39.12500    147.000
39.17000    154.000
39.21500    144.000
39.26000    156.000
39.30500    157.000
39.35000    149.000
39.39500    141.000
39.44000    140.000
39.48500    153.000
39.53000    149.000
39.57500    148.000
39.62000    142.000
39.66500    147.000
39.71000    149.000
39.75500    153.000
39.80000    148.000
39.84500    137.000
39.89000    150.000
39.93500    140.000
39.98000    147.000
40.02500    139.000
40.07000    137.000
40.11500    126.000
40.16000    131.000
40.20500    126.000
40.25000    131.000
40.29500    162.000
40.34000    127.000
40.38500    141.000
40.43000    151.000
40.47500    128.000
40.52000    119.000
40.56500    149.000
40.61000    154.000
40.65500    129.000
40.70000    150.000
40.74500    159.000
40.79000    134.000
40.83500    140.000
40.88000    142.000
40.92500    139.000
40.97000    139.000
41.01500    157.000
41.06000    153.000
41.10500    133.000
41.15000    132.000
41.19500    145.000
41.24000    135.000
41.28500    152.000
41.33000    145.000
41.37500    148.000
41.42000    139.000
41.46500    145.000
41.51000    163.000
41.55500    147.000
41.60000    125.000
41.64500    127.000
41.69000    123.000
41.73500    152.000
41.78000    129.000
41.82500    133.000
41.87000    147.000
41.91500    146.000
41.96000    147.000
42.00500    131.000
42.05000    124.000
42.09500    128.000
42.14000    141.000
42.18500    138.000
42.23000    122.000
42.27500    152.000
42.32000    137.000
42.36500    144.000
42.41000    135.000
42.45500    142.000
42.50000    150.000
42.54500    158.000
42.59000    144.000
42.63500    159.000
42.68000    155.000
42.72500    144.000
42.77000    136.000
42.81500    150.000
42.86000    155.000
42.90500    143.000
42.95000    138.000
42.99500    154.000
43.04000    149.000
43.08500    145.000
43.13000    132.000
43.17500    126.000
43.22000    143.000
43.26500    143.000
43.31000    154.000
43.35500    155.000
43.40000    135.000
43.44500    138.000
43.49000    160.000
43.53500    140.000
43.58000    144.000
43.62500    147.000
43.67000    132.000
43.71500    130.000
43.76000    152.000
43.80500    130.000
43.85000    151.000
43.89500    147.000
43.94000    153.000
43.98500    146.000
44.03000    143.000
44.07500    129.000
44.12000    159.000
44.16500    157.000
44.21000    144.000
44.25500    139.000
44.30000    136.000
44.34500    135.000
44.39000    126.000
44.43500    142.000
44.48000    146.000
44.52500    150.000
44.57000    136.000
44.61500    163.000
44.66000    127.000
44.70500    147.000
44.75000    120.000
44.79500    142.000
44.84000    130.000
44.88500    145.000
44.93000    155.000
44.97500    132.000
45.02000    139.000
45.06500    141.000
45.11000    151.000
45.15500    156.000
45.20000    139.000
45.24500    137.000
45.29000    135.000
45.33500    120.000
45.38000    136.000
45.42500    133.000
45.47000    132.000
45.51500    135.000
45.56000    128.000
45.60500    147.000
45.65000    132.000
45.69500    141.000
45.74000    115.000
45.78500    131.000
45.83000    122.000
45.87500    125.000
45.92000    119.000
45.96500    121.000
46.01000    137.000
46.05500    119.000
46.10000    136.000
46.14500    132.000
46.19000    121.000
46.23500    127.000
46.28000    119.000
46.32500    119.000
46.37000    155.000
46.41500    115.000
46.46000    127.000
46.50500    116.000
46.55000    137.000
46.59500    131.000
46.64000    116.000
46.68500    135.000
46.73000    122.000
46.77500    120.000
46.82000    129.000
46.86500    122.000
46.91000    110.000
46.95500    126.000
47.00000    124.000
47.04500    130.000
47.09000    128.000
47.13500    124.000
47.18000    113.000
47.22500    110.000
47.27000    104.000
47.31500    118.000
47.36000    103.000
47.40500    116.000
47.45000    122.000
47.49500    116.000
47.54000    99.000
47.58500    128.000
47.63000    104.000
47.67500    110.000
47.72000    110.000
47.76500    115.000
47.81000    110.000
47.85500    104.000
47.90000    118.000
47.94500    107.000
47.99000    108.000
48.03500    117.000
48.08000    120.000
48.12500    104.000
48.17000    103.000
48.21500    111.000
48.26000    106.000
48.30500    111.000
48.35000    102.000
48.39500    125.000
48.44000    92.000
48.48500    103.000
48.53000    108.000
48.57500    116.000
48.62000    97.000
48.66500    102.000
48.71000    102.000
48.75500    115.000
48.80000    116.000
48.84500    117.000
48.89000    125.000
48.93500    114.000
48.98000    104.000
49.02500    108.000
49.07000    97.000
49.11500    95.000
49.16000    98.000
49.20500    117.000
49.25000    116.000
49.29500    93.000
49.34000    108.000
49.38500    110.000
49.43000    100.000
49.47500    98.000
49.52000    110.000
49.56500    95.000
49.61000    116.000
49.65500    99.000
49.70000    95.000
49.74500    90.000
49.79000    104.000
49.83500    112.000
49.88000    100.000
49.92500    104.000
49.97000    95.000
50.01500    99.000
50.06000    105.000
50.10500    114.000
50.15000    104.000
50.19500    100.000
50.24000    104.000
50.28500    116.000
50.33000    103.000
50.37500    94.000
50.42000    106.000
50.46500    101.000
50.51000    113.000
50.55500    105.000
50.60000    106.000
50.64500    112.000
50.69000    97.000
50.73500    103.000
50.78000    96.000
50.82500    111.000
50.87000    116.000
50.91500    108.000
50.96000    110.000
51.00500    101.000
51.05000    120.000
51.09500    107.000
51.14000    106.000
51.18500    111.000
51.23000    112.000
51.27500    95.000
51.32000    103.000
51.36500    113.000
51.41000    102.000
51.45500    102.000
51.50000    104.000
51.54500    125.000
51.59000    112.000
51.63500    123.000
51.68000    108.000
51.72500    96.000
51.77000    109.000
51.81500    114.000
51.86000    112.000
51.90500    98.000
51.95000    103.000
51.99500    110.000
52.04000    107.000
52.08500    106.000
52.13000    97.000
52.17500    101.000
52.22000    85.000
52.26500    102.000
52.31000    106.000
52.35500    97.000
52.40000    109.000
52.44500    106.000
52.49000    123.000
52.53500    112.000
52.58000    102.000
52.62500    87.000
52.67000    98.000
52.71500    103.000
52.76000    85.000
52.80500    99.000
52.85000    108.000
52.89500    99.000
52.94000    102.000
52.98500    95.000
53.03000    108.000
53.07500    105.000
53.12000    99.000
53.16500    123.000
53.21000    102.000
53.25500    108.000
53.30000    115.000
53.34500    96.000
53.39000    93.000
53.43500    91.000
53.48000    96.000
53.52500    112.000
53.57000    104.000
53.61500    101.000
53.66000    94.000
53.70500    89.000
53.75000    99.000
53.79500    96.000
53.84000    115.000
53.88500    99.000
53.93000    92.000
53.97500    106.000
54.02000    109.000
54.06500    103.000
54.11000    113.000
54.15500    96.000
54.20000    106.000
54.24500    110.000
54.29000    90.000
54.33500    91.000
54.38000    118.000
54.42500    121.000
54.47000    105.000
54.51500    101.000
54.56000    107.000
54.60500    104.000
54.65000    86.000
54.69500    119.000
54.74000    119.000
54.78500    110.000
54.83000    112.000
54.87500    114.000
54.92000    98.000
54.96500    91.000
55.01000    102.000
55.05500    103.000
55.10000    91.000
55.14500    106.000
55.19000    91.000
55.23500    108.000
55.28000    112.000
55.32500    109.000
55.37000    103.000
55.41500    116.000
55.46000    107.000
55.50500    108.000
55.55000    94.000
55.59500    112.000
55.64000    94.000
55.68500    106.000
55.73000    109.000
55.77500    109.000
55.82000    106.000
55.86500    84.000
55.91000    93.000
55.95500    95.000
56.00000    104.000
56.04500    95.000
56.09000    101.000
56.13500    84.000
56.18000    102.000
56.22500    104.000
56.27000    115.000
56.31500    103.000
56.36000    123.000
56.40500    91.000
56.45000    88.000
56.49500    103.000
56.54000    108.000
56.58500    89.000
56.63000    102.000
56.67500    98.000
56.72000    99.000
56.76500    91.000
56.81000    92.000
56.85500    100.000
56.90000    112.000
56.94500    92.000
56.99000    97.000
57.03500    104.000
57.08000    113.000
57.12500    89.000
57.17000    101.000
57.21500    109.000
57.26000    93.000
57.30500    102.000
57.35000    95.000
57.39500    92.000
57.44000    95.000
57.48500    115.000
57.53000    96.000
57.57500    92.000
57.62000    103.000
57.66500    92.000
57.71000    89.000
57.75500    100.000
57.80000    100.000
57.84500    103.000
57.89000    101.000
57.93500    99.000
57.98000    103.000
58.02500    94.000
58.07000    99.000
58.11500    99.000
58.16000    93.000
58.20500    103.000
58.25000    96.000
58.29500    95.000
58.34000    101.000
58.38500    101.000
58.43000    99.000
58.47500    84.000
58.52000    94.000
58.56500    87.000
58.61000    109.000
58.65500    92.000
58.70000    103.000
58.74500    88.000
58.79000    108.000
58.83500    98.000
58.88000    97.000
58.92500    89.000
58.97000    110.000
59.01500    92.000
59.06000    95.000
59.10500    100.000
59.15000    91.000
59.19500    103.000
59.24000    100.000
59.28500    100.000
59.33000    82.000
59.37500    95.000
59.42000    103.000
59.46500    78.000
59.51000    102.000
59.55500    78.000
59.60000    95.000
59.64500    80.000
59.69000    92.000
59.73500    96.000
59.78000    91.000
59.82500    85.000
59.87000    108.000
59.91500    100.000
59.96000    91.000
60.00500    93.000
60.05000    76.000
60.09500    88.000
60.14000    91.000
60.18500    93.000
60.23000    95.000
60.27500    92.000
60.32000    113.000
60.36500    79.000
60.41000    96.000
60.45500    81.000
60.50000    85.000
60.54500    86.000
60.59000    90.000
60.63500    87.000
60.68000    105.000
60.72500    96.000
60.77000    107.000
60.81500    99.000
60.86000    96.000
60.90500    82.000
60.95000    85.000
60.99500    94.000
61.04000    101.000
61.08500    88.000
61.13000    91.000
61.17500    94.000
61.22000    89.000
61.26500    89.000
61.31000    83.000
61.35500    100.000
61.40000    100.000
61.44500    110.000
61.49000    90.000
61.53500    89.000
61.58000    92.000
61.62500    87.000
61.67000    89.000
61.71500    86.000
61.76000    86.000
61.80500    105.000
61.85000    89.000
61.89500    90.000
61.94000    90.000
61.98500    94.000