File: ISoD/xrd_data/HSC023_ranges_combined.xy
2.0 920.0
2.045 871.0
2.09 860.0
2.135 790.0
2.18 756.0
2.225 731.0
2.27 666.0
2.315 688.0
2.36 640.0
2.405 609.0
2.45 584.0
2.495 584.0
2.54 558.0
2.585 570.0
2.63 527.0
2.675 521.0
2.72 516.0
2.765 526.0
2.81 501.0
2.855 443.0
2.9 485.0
2.945 445.0
2.99 435.0
3.035 439.0
3.08 444.0
3.125 453.0
3.17 470.0
3.215 434.0
3.26 440.0
3.305 460.0
3.35 426.0
3.395 435.0
3.44 425.0
3.485 450.0
3.53 442.0
3.575 393.0
3.62 421.0
3.665 424.0
3.71 420.0
3.755 417.0
3.8 395.0
3.845 438.0
3.89 427.0
3.935 409.0
3.98 409.0
4.025 399.0
4.07 415.0
4.115 430.0
4.16 410.0
4.205 409.0
4.25 408.0
4.295 408.0
4.34 413.0
4.385 446.0
4.43 398.0
4.475 399.0
4.52 412.0
4.565 362.0
4.61 411.0
4.655 400.0
4.7 389.0
4.745 384.0
4.79 384.0
4.835 408.0
4.88 392.0
4.925 415.0
4.97 401.0
5.015 417.0
5.06 407.0
5.105 403.0
5.15 405.0
5.195 410.0
5.24 389.0
5.285 413.0
5.33 443.0
5.375 412.0
5.42 437.0
5.465 421.0
5.51 415.0
5.555 392.0
5.6 410.0
5.645 431.0
5.69 419.0
5.735 384.0
5.78 424.0
5.825 409.0
5.87 397.0
5.915 424.0
5.96 421.0
6.005 386.0
6.05 391.0
6.095 400.0
6.14 423.0
6.185 428.0
6.23 412.0
6.275 424.0
6.32 414.0
6.365 435.0
6.41 422.0
6.455 415.0
6.5 412.0
6.545 392.0
6.59 432.0
6.635 406.0
6.68 403.0
6.725 405.0
6.77 409.0
6.815 372.0
6.86 413.0
6.905 375.0
6.95 401.0
6.995 399.0
7.04 417.0
7.085 378.0
7.13 393.0
7.175 417.0
7.22 395.0
7.265 397.0
7.31 428.0
7.355 413.0
7.4 400.0
7.445 385.0
7.49 417.0
7.535 389.0
7.58 405.0
7.625 403.0
7.67 385.0
7.715 416.0
7.76 403.0
7.805 398.0
7.85 404.0
7.895 414.0
7.94 410.0
7.985 382.0
8.03 383.0
8.075 412.0
8.12 384.0
8.165 440.0
8.21 396.0
8.255 412.0
8.3 427.0
8.345 395.0
8.39 398.0
8.435 414.0
8.48 418.0
8.525 407.0
8.57 405.0
8.615 384.0
8.66 406.0
8.705 410.0
8.75 388.0
8.795 390.0
8.84 410.0
8.885 386.0
8.93 397.0
8.975 414.0
9.02 424.0
9.065 431.0
9.11 432.0
9.155 384.0
9.2 376.0
9.245 417.0
9.29 404.0
9.335 392.0
9.38 362.0
9.425 396.0
9.47 414.0
9.515 401.0
9.56 398.0
9.605 376.0
9.65 381.0
9.695 383.0
9.74 394.0
9.785 381.0
9.83 403.0
9.875 385.0
9.92 374.0
9.965 368.0
10.01 397.0
10.055 408.0
10.1 393.0
10.145 379.0
10.19 391.0
10.235 420.0
10.28 382.0
10.325 402.0
10.37 363.0
10.415 390.0
10.46 388.0
10.505 411.0
10.55 390.0
10.595 391.0
10.64 389.0
10.685 378.0
10.73 373.0
10.775 388.0
10.82 395.0
10.865 407.0
10.91 395.0
10.955 390.0
11.0 387.0
11.045 354.0
11.09 398.0
11.135 391.0
11.18 398.0
11.225 391.0
11.27 368.0
11.315 381.0
11.36 365.0
11.405 402.0
11.45 392.0
11.495 404.0
11.54 391.0
11.585 391.0
11.63 411.0
11.675 420.0
11.72 409.0
11.765 376.0
11.81 406.0
11.855 408.0
11.9 357.0
11.945 402.0
11.99 378.0
12.035 372.0
12.08 388.0
12.125 401.0
12.17 386.0
12.215 398.0
12.26 380.0
12.305 374.0
12.35 422.0
12.395 421.0
12.44 394.0
12.485 388.0
12.53 398.0
12.575 401.0
12.62 379.0
12.665 375.0
12.71 397.0
12.755 392.0
12.8 380.0
12.845 394.0
12.89 399.0
12.935 384.0
12.98 388.0
13.025 402.0
13.07 382.0
13.115 379.0
13.16 383.0
13.205 386.0
13.25 378.0
13.295 416.0
13.34 358.0
13.385 392.0
13.43 415.0
13.475 379.0
13.52 396.0
13.565 373.0
13.61 396.0
13.655 388.0
13.7 396.0
13.745 364.0
13.79 393.0
13.835 377.0
13.88 386.0
13.925 386.0
13.97 364.0
14.015 403.0
14.06 403.0
14.105 378.0
14.15 364.0
14.195 369.0
14.24 400.0
14.285 384.0
14.33 408.0
14.375 368.0
14.42 360.0
14.465 383.0
14.51 393.0
14.555 392.0
14.6 366.0
14.645 390.0
14.69 375.0
14.735 414.0
14.78 396.0
14.825 391.0
14.87 395.0
14.915 398.0
14.96 383.0
15.005 391.0
15.05 397.0
15.095 371.0
15.14 367.0
15.185 394.0
15.23 366.0
15.275 414.0
15.32 372.0
15.365 390.0
15.41 408.0
15.455 370.0
15.5 401.0
15.545 386.0
15.59 414.0
15.635 371.0
15.68 383.0
15.725 404.0
15.77 421.0
15.815 411.0
15.86 383.0
15.905 386.0
15.95 417.0
15.995 397.0
16.04 403.0
16.085 406.0
16.13 395.0
16.175 390.0
16.22 407.0
16.265 399.0
16.31 391.0
16.355 422.0
16.4 427.0
16.445 389.0
16.49 406.0
16.535 380.0
16.58 393.0
16.625 402.0
16.67 377.0
16.715 403.0
16.76 393.0
16.805 397.0
16.85 396.0
16.895 377.0
16.94 429.0
16.985 438.0
17.03 420.0
17.075 385.0
17.12 417.0
17.165 414.0
17.21 410.0
17.255 415.0
17.3 437.0
17.345 401.0
17.39 408.0
17.435 408.0
17.48 433.0
17.525 407.0
17.57 412.0
17.615 382.0
17.66 412.0
17.705 412.0
17.75 387.0
17.795 423.0
17.84 435.0
17.885 402.0
17.93 435.0
17.975 434.0
18.02 461.0
18.065 415.0
18.11 430.0
18.155 428.0
18.2 448.0
18.245 436.0
18.29 412.0
18.335 440.0
18.38 413.0
18.425 413.0
18.47 433.0
18.515 448.0
18.56 435.0
18.605 406.0
18.65 409.0
18.695 467.0
18.74 447.0
18.785 418.0
18.83 441.0
18.875 438.0
18.92 426.0
18.965 470.0
19.01 449.0
19.055 454.0
19.1 437.0
19.145 437.0
19.19 462.0
19.235 448.0
19.28 462.0
19.325 456.0
19.37 453.0
19.415 467.0
19.46 471.0
19.505 465.0
19.55 445.0
19.595 454.0
19.64 447.0
19.685 466.0
19.73 451.0
19.775 469.0
19.82 475.0
19.865 460.0
19.91 487.0
19.955 458.0
20.0 460.0
20.045 467.0
20.09 481.0
20.135 486.0
20.18 497.0
20.225 511.0
20.27 449.0
20.315 479.0
20.36 473.0
20.405 488.0
20.45 452.0
20.495 454.0
20.54 452.0
20.585 497.0
20.63 492.0
20.675 481.0
20.72 517.0
20.765 466.0
20.81 493.0
20.855 510.0
20.9 491.0
20.945 536.0
20.99 506.0
21.035 477.0
21.08 493.0
21.125 495.0
21.17 480.0
21.215 518.0
21.26 481.0
21.305 526.0
21.35 518.0
21.395 484.0
21.44 501.0
21.485 500.0
21.53 519.0
21.575 502.0
21.62 513.0
21.665 537.0
21.71 516.0
21.755 465.0
21.8 498.0
21.845 523.0
21.89 470.0
21.935 518.0
21.98 486.0
22.025 519.0
22.07 495.0
22.115 508.0
22.16 537.0
22.205 542.0
22.25 537.0
22.295 515.0
22.34 548.0
22.385 518.0
22.43 505.0
22.475 492.0
22.52 542.0
22.565 513.0
22.61 539.0
22.655 512.0
22.7 504.0
22.745 526.0
22.79 545.0
22.835 531.0
22.88 523.0
22.925 519.0
22.97 551.0
23.015 535.0
23.06 536.0
23.105 523.0
23.15 561.0
23.195 547.0
23.24 525.0
23.285 548.0
23.33 556.0
23.375 537.0
23.42 559.0
23.465 570.0
23.51 534.0
23.555 547.0
23.6 564.0
23.645 511.0
23.69 569.0
23.735 574.0
23.78 585.0
23.825 542.0
23.87 559.0
23.915 530.0
23.96 557.0
24.005 565.0
24.05 583.0
24.095 551.0
24.14 536.0
24.185 566.0
24.23 546.0
24.275 553.0
24.32 563.0
24.365 604.0
24.41 570.0
24.455 619.0
24.5 575.0
24.545 589.0
24.59 630.0
24.635 587.0
24.68 598.0
24.725 566.0
24.77 602.0
24.815 582.0
24.86 603.0
24.905 611.0
24.95 584.0
24.995 598.0
25.04 618.0
25.085 610.0
25.13 588.0
25.175 603.0
25.22 572.0
25.265 593.0
25.31 564.0
25.355 599.0
25.4 620.0
25.445 592.0
25.49 612.0
25.535 614.0
25.58 599.0
25.625 647.0
25.67 631.0
25.715 628.0
25.76 643.0
25.805 587.0
25.85 676.0
25.895 632.0
25.94 643.0
25.985 584.0
26.03 618.0
26.075 660.0
26.12 672.0
26.165 651.0
26.21 618.0
26.255 630.0
26.3 665.0
26.345 662.0
26.39 632.0
26.435 675.0
26.48 652.0
26.525 684.0
26.57 667.0
26.615 706.0
26.66 658.0
26.705 611.0
26.75 689.0
26.795 693.0
26.84 658.0
26.885 647.0
26.93 682.0
26.975 692.0
27.02 642.0
27.065 688.0
27.11 656.0
27.155 674.0
27.2 657.0
27.245 710.0
27.29 734.0
27.335 626.0
27.38 657.0
27.425 662.0
27.47 673.0
27.515 647.0
27.56 657.0
27.605 678.0
27.65 642.0
27.695 646.0
27.74 628.0
27.785 620.0
27.83 640.0
27.875 617.0
27.92 615.0
27.965 610.0
28.01 582.0
28.055 598.0
28.1 626.0
28.145 565.0
28.19 609.0
28.235 582.0
28.28 598.0
28.325 554.0
28.37 560.0
28.415 555.0
28.46 535.0
28.505 587.0
28.55 557.0
28.595 527.0
28.64 524.0
28.685 530.0
28.73 510.0
28.775 528.0
28.82 537.0
28.865 509.0
28.91 506.0
28.955 546.0
29.0 506.0
29.045 515.0
29.09 505.0
29.135 476.0
29.18 512.0
29.225 491.0
29.27 515.0
29.315 507.0
29.36 492.0
29.405 483.0
29.45 461.0
29.495 499.0
29.54 468.0
29.585 477.0
29.63 445.0
29.675 456.0
29.72 483.0
29.765 459.0
29.81 455.0
29.855 432.0
29.9 475.0
29.945 474.0
29.99 446.0
30.035 422.0
30.08 454.0
30.125 446.0
30.17 429.0
30.215 439.0
30.26 455.0
30.305 435.0
30.35 429.0
30.395 433.0
30.44 459.0
30.485 450.0
30.53 427.0
30.575 440.0
30.62 408.0
30.665 411.0
30.71 396.0
30.755 413.0
30.8 405.0
30.845 439.0
30.89 422.0
30.935 392.0
30.98 406.0
31.025 417.0
31.07 393.0
31.115 426.0
31.16 411.0
31.205 418.0
31.25 396.0
31.295 404.0
31.34 402.0
31.385 384.0
31.43 397.0
31.475 394.0
31.52 386.0
31.565 388.0
31.61 414.0
31.655 396.0
31.7 365.0
31.745 386.0
31.79 357.0
31.835 399.0
31.88 392.0
31.925 368.0
31.97 375.0
32.015 401.0
32.06 383.0
32.105 401.0
32.15 374.0
32.195 365.0
32.24 373.0
32.285 358.0
32.33 357.0
32.375 327.0
32.42 342.0
32.465 344.0
32.51 360.0
32.555 364.0
32.6 355.0
32.645 330.0
32.69 352.0
32.735 345.0
32.78 354.0
32.825 331.0
32.87 336.0
32.915 339.0
32.96 322.0
33.005 338.0
33.05 321.0
33.095 339.0
33.14 338.0
33.185 347.0
33.23 341.0
33.275 342.0
33.32 346.0
33.365 312.0
33.41 322.0
33.455 336.0
33.5 340.0
33.545 317.0
33.59 344.0
33.635 346.0
33.68 323.0
33.725 363.0
33.77 338.0
33.815 323.0
33.86 337.0
33.905 317.0
33.95 304.0
33.995 307.0
34.04 329.0
34.085 302.0
34.13 323.0
34.175 296.0
34.22 319.0
34.265 307.0
34.31 298.0
34.355 279.0
34.4 308.0
34.445 287.0
34.49 270.0
34.535 309.0
34.58 316.0
34.625 278.0
34.67 293.0
34.715 288.0
34.76 286.0
34.805 262.0
34.85 289.0
34.895 300.0
34.94 283.0
34.985 304.0
35.03 285.0
35.075 279.0
35.12 297.0
35.165 283.0
35.21 293.0
35.255 284.0
35.3 297.0
35.345 301.0
35.39 291.0
35.435 266.0
35.48 266.0
35.525 273.0
35.57 294.0
35.615 272.0
35.66 291.0
35.705 251.0
35.75 286.0
35.795 272.0
35.84 276.0
35.885 262.0
35.93 282.0
35.975 278.0
36.02 286.0
36.065 278.0
36.11 289.0
36.155 291.0
36.2 267.0
36.245 270.0
36.29 270.0
36.335 265.0
36.38 270.0
36.425 261.0
36.47 261.0
36.515 273.0
36.56 235.0
36.605 302.0
36.65 257.0
36.695 294.0
36.74 259.0
36.785 273.0
36.83 241.0
36.875 245.0
36.92 271.0
36.965 232.0
37.01 275.0
37.055 273.0
37.1 259.0
37.145 242.0
37.19 261.0
37.235 269.0
37.28 269.0
37.325 243.0
37.37 251.0
37.415 238.0
37.46 248.0
37.505 254.0
37.55 246.0
37.595 251.0
37.64 232.0
37.685 254.0
37.73 240.0
37.775 249.0
37.82 245.0
37.865 263.0
37.91 253.0
37.955 253.0
38.0 249.0
38.045 238.0
38.09 213.0
38.135 234.0
38.18 248.0
38.225 257.0
38.27 253.0
38.315 242.0
38.36 237.0
38.405 267.0
38.45 240.0
38.495 230.0
38.54 252.0
38.585 259.0
38.63 213.0
38.675 252.0
38.72 252.0
38.765 238.0
38.81 232.0
38.855 269.0
38.9 226.0
38.945 258.0
38.99 235.0
39.035 232.0
39.08 235.0
39.125 225.0
39.17 224.0
39.215 200.0
39.26 247.0
39.305 223.0
39.35 235.0
39.395 218.0
39.44 239.0
39.485 237.0
39.53 227.0
39.575 245.0
39.62 214.0
39.665 239.0
39.71 230.0
39.755 224.0
39.8 228.0
39.845 223.0
39.89 210.0
39.935 230.0
39.98 223.0
40.025 209.0
40.07 230.0
40.115 232.0
40.16 213.0
40.205 224.0
40.25 252.0
40.295 226.0
40.34 228.0
40.385 237.0
40.43 234.0
40.475 220.0
40.52 223.0
40.565 239.0
40.61 232.0
40.655 232.0
40.7 211.0
40.745 209.0
40.79 227.0
40.835 226.0
40.88 252.0
40.925 205.0
40.97 223.0
41.015 226.0
41.06 228.0
41.105 206.0
41.15 227.0
41.195 238.0
41.24 223.0
41.285 240.0
41.33 221.0
41.375 221.0
41.42 226.0
41.465 225.0
41.51 220.0
41.555 227.0
41.6 205.0
41.645 222.0
41.69 216.0
41.735 221.0
41.78 215.0
41.825 235.0
41.87 219.0
41.915 214.0
41.96 238.0
42.005 208.0
42.05 241.0
42.095 232.0
42.14 209.0
42.185 203.0
42.23 229.0
42.275 211.0
42.32 226.0
42.365 228.0
42.41 232.0
42.455 226.0
42.5 226.0
42.545 233.0
42.59 240.0
42.635 206.0
42.68 231.0
42.725 233.0
42.77 205.0
42.815 241.0
42.86 226.0
42.905 224.0
42.95 204.0
42.995 226.0
43.04 232.0
43.085 228.0
43.13 208.0
43.175 224.0
43.22 215.0
43.265 229.0
43.31 200.0
43.355 219.0
43.4 200.0
43.445 207.0
43.49 210.0
43.535 228.0
43.58 191.0
43.625 214.0
43.67 215.0
43.715 210.0
43.76 242.0
43.805 213.0
43.85 217.0
43.895 222.0
43.94 216.0
43.985 222.0
44.03 206.0
44.075 199.0
44.12 214.0
44.165 212.0
44.21 210.0
44.255 212.0
44.3 212.0
44.345 198.0
44.39 221.0
44.435 217.0
44.48 212.0
44.525 193.0
44.57 187.0
44.615 200.0
44.66 207.0
44.705 201.0
44.75 219.0
44.795 196.0
44.84 227.0
44.885 225.0
44.93 213.0
44.975 209.0
45.02 209.0
45.065 188.0
45.11 219.0
45.155 205.0
45.2 191.0
45.245 207.0
45.29 200.0
45.335 208.0
45.38 198.0
45.425 214.0
45.47 208.0
45.515 202.0
45.56 201.0
45.605 180.0
45.65 195.0
45.695 203.0
45.74 187.0
45.785 190.0
45.83 210.0
45.875 208.0
45.92 208.0
45.965 192.0
46.01 199.0
46.055 201.0
46.1 200.0
46.145 218.0
46.19 189.0
46.235 201.0
46.28 212.0
46.325 205.0
46.37 184.0
46.415 194.0
46.46 194.0
46.505 196.0
46.55 193.0
46.595 220.0
46.64 166.0
46.685 189.0
46.73 178.0
46.775 191.0
46.82 193.0
46.865 202.0
46.91 206.0
46.955 200.0
47.0 190.0
47.045 184.0
47.09 202.0
47.135 198.0
47.18 203.0
47.225 194.0
47.27 191.0
47.315 183.0
47.36 162.0
47.405 181.0
47.45 189.0
47.495 184.0
47.54 178.0
47.585 198.0
47.63 207.0
47.675 184.0
47.72 179.0
47.765 178.0
47.81 193.0
47.855 192.0
47.9 198.0
47.945 181.0
47.99 187.0
48.035 184.0
48.08 177.0
48.125 190.0
48.17 169.0
48.215 188.0
48.26 183.0
48.305 172.0
48.35 182.0
48.395 191.0
48.44 167.0
48.485 182.0
48.53 178.0
48.575 190.0
48.62 178.0
48.665 189.0
48.71 184.0
48.755 179.0
48.8 170.0
48.845 171.0
48.89 177.0
48.935 177.0
48.98 175.0
49.025 179.0
49.07 190.0
49.115 170.0
49.16 189.0
49.205 201.0
49.25 188.0
49.295 179.0
49.34 178.0
49.385 168.0
49.43 159.0
49.475 189.0
49.52 184.0
49.565 176.0
49.61 192.0
49.655 182.0
49.7 164.0
49.745 164.0
49.79 163.0
49.835 176.0
49.88 149.0
49.925 178.0
49.97 169.0
50.015 198.0
50.06 156.0
50.105 176.0
50.15 180.0
50.195 181.0
50.24 159.0
50.285 152.0
50.33 170.0
50.375 175.0
50.42 183.0
50.465 178.0
50.51 173.0
50.555 177.0
50.6 159.0
50.645 191.0
50.69 168.0
50.735 168.0
50.78 180.0
50.825 148.0
50.87 156.0
50.915 172.0
50.96 161.0
51.005 170.0
51.05 154.0
51.095 175.0
51.14 161.0
51.185 196.0
51.23 172.0
51.275 165.0
51.32 188.0
51.365 143.0
51.41 157.0
51.455 152.0
51.5 178.0
51.545 167.0
51.59 187.0
51.635 169.0
51.68 172.0
51.725 150.0
51.77 165.0
51.815 178.0
51.86 155.0
51.905 153.0
51.95 183.0
51.995 182.0
52.04 150.0
52.085 169.0
52.13 175.0
52.175 151.0
52.22 148.0
52.265 171.0
52.31 162.0
52.355 157.0
52.4 157.0
52.445 171.0
52.49 162.0
52.535 171.0
52.58 155.0
52.625 141.0
52.67 156.0
52.715 159.0
52.76 137.0
52.805 160.0
52.85 152.0
52.895 152.0
52.94 165.0
52.985 163.0
53.03 165.0
53.075 163.0
53.12 157.0
53.165 165.0
53.21 161.0
53.255 160.0
53.3 152.0
53.345 173.0
53.39 168.0
53.435 159.0
53.48 162.0
53.525 160.0
53.57 169.0
53.615 135.0
53.66 162.0
53.705 171.0
53.75 164.0
53.795 168.0
53.84 174.0
53.885 167.0
53.93 162.0
53.975 164.0
54.02 167.0
54.065 160.0
54.11 155.0
54.155 157.0
54.2 147.0
54.245 140.0
54.29 166.0
54.335 169.0
54.38 159.0
54.425 146.0
54.47 147.0
54.515 151.0
54.56 172.0
54.605 157.0
54.65 154.0
54.695 140.0
54.74 161.0
54.785 177.0
54.83 160.0
54.875 156.0
54.92 159.0
54.965 144.0
55.01 170.0
55.055 168.0
55.1 158.0
55.145 170.0
55.19 164.0
55.235 169.0
55.28 178.0
55.325 163.0
55.37 160.0
55.415 163.0
55.46 155.0
55.505 142.0
55.55 158.0
55.595 147.0
55.64 167.0
55.685 157.0
55.73 168.0
55.775 163.0
55.82 151.0
55.865 165.0
55.91 153.0
55.955 152.0
56.0 147.0
56.045 166.0
56.09 163.0
56.135 152.0
56.18 157.0
56.225 149.0
56.27 152.0
56.315 169.0
56.36 146.0
56.405 160.0
56.45 141.0
56.495 164.0
56.54 148.0
56.585 160.0
56.63 143.0
56.675 149.0
56.72 153.0
56.765 148.0
56.81 158.0
56.855 162.0
56.9 173.0
56.945 142.0
56.99 167.0
57.035 168.0
57.08 159.0
57.125 166.0
57.17 144.0
57.215 153.0
57.26 173.0
57.305 144.0
57.35 159.0
57.395 137.0
57.44 159.0
57.485 165.0
57.53 138.0
57.575 161.0
57.62 153.0
57.665 155.0
57.71 149.0
57.755 165.0
57.8 150.0
57.845 166.0
57.89 154.0
57.935 159.0
57.98 147.0
58.025 128.0
58.07 167.0
58.115 143.0
58.16 158.0
58.205 146.0
58.25 146.0
58.295 156.0
58.34 157.0
58.385 165.0
58.43 147.0
58.475 149.0
58.52 156.0
58.565 167.0
58.61 150.0
58.655 170.0
58.7 169.0
58.745 155.0
58.79 142.0
58.835 157.0
58.88 162.0
58.925 127.0
58.97 148.0
59.015 169.0
59.06 142.0
59.105 151.0
59.15 149.0
59.195 154.0
59.24 146.0
59.285 148.0
59.33 167.0
59.375 151.0
59.42 150.0
59.465 152.0
59.51 148.0
59.555 145.0
59.6 130.0
59.645 144.0
59.69 137.0
59.735 137.0
59.78 143.0
59.825 148.0
59.87 149.0
59.915 131.0
59.96 131.0
60.005 156.0
60.05 138.0
60.095 155.0
60.14 136.0
60.185 133.0
60.23 156.0
60.275 149.0
60.32 159.0
60.365 138.0
60.41 150.0
60.455 140.0
60.5 150.0
60.545 136.0
60.59 148.0
60.635 154.0
60.68 148.0
60.725 161.0
60.77 150.0
60.815 144.0
60.86 146.0
60.905 160.0
60.95 129.0
60.995 154.0
61.04 145.0
61.085 145.0
61.13 154.0
61.175 133.0
61.22 142.0
61.265 152.0
61.31 134.0
61.355 158.0
61.4 131.0
61.445 160.0
61.49 144.0
61.535 145.0
61.58 140.0
61.625 131.0
61.67 139.0
61.715 155.0
61.76 143.0
61.805 166.0
61.85 153.0
61.895 152.0
61.94 149.0
61.985 144.0