File: ISoD/xrd_data/HSC073.xy
2.00000 3.000
2.04500 5.000
2.09000 2.000
2.13500 3.000
2.18000 4.000
2.22500 8.000
2.27000 6.000
2.31500 3.000
2.36000 3.000
2.40500 3.000
2.45000 3.000
2.49500 3.000
2.54000 4.000
2.58500 2.000
2.63000 1.000
2.67500 1.000
2.72000 6.000
2.76500 2.000
2.81000 2.000
2.85500 1.000
2.90000 4.000
2.94500 4.000
2.99000 5.000
3.03500 6.000
3.08000 5.000
3.12500 3.000
3.17000 17.000
3.21500 28.000
3.26000 56.000
3.30500 124.000
3.35000 202.000
3.39500 200.000
3.44000 198.000
3.48500 211.000
3.53000 214.000
3.57500 228.000
3.62000 204.000
3.66500 243.000
3.71000 242.000
3.75500 224.000
3.80000 237.000
3.84500 242.000
3.89000 229.000
3.93500 232.000
3.98000 262.000
4.02500 252.000
4.07000 238.000
4.11500 269.000
4.16000 260.000
4.20500 243.000
4.25000 264.000
4.29500 253.000
4.34000 292.000
4.38500 271.000
4.43000 282.000
4.47500 279.000
4.52000 268.000
4.56500 278.000
4.61000 284.000
4.65500 300.000
4.70000 303.000
4.74500 291.000
4.79000 289.000
4.83500 298.000
4.88000 305.000
4.92500 293.000
4.97000 310.000
5.01500 325.000
5.06000 329.000
5.10500 327.000
5.15000 338.000
5.19500 297.000
5.24000 291.000
5.28500 328.000
5.33000 339.000
5.37500 327.000
5.42000 328.000
5.46500 340.000
5.51000 318.000
5.55500 308.000
5.60000 336.000
5.64500 303.000
5.69000 328.000
5.73500 365.000
5.78000 333.000
5.82500 366.000
5.87000 365.000
5.91500 346.000
5.96000 357.000
6.00500 344.000
6.05000 353.000
6.09500 374.000
6.14000 357.000
6.18500 364.000
6.23000 390.000
6.27500 371.000
6.32000 350.000
6.36500 385.000
6.41000 367.000
6.45500 375.000
6.50000 360.000
6.54500 374.000
6.59000 347.000
6.63500 389.000
6.68000 368.000
6.72500 352.000
6.77000 359.000
6.81500 392.000
6.86000 365.000
6.90500 398.000
6.95000 365.000
6.99500 366.000
7.04000 399.000
7.08500 354.000
7.13000 387.000
7.17500 394.000
7.22000 413.000
7.26500 386.000
7.31000 378.000
7.35500 391.000
7.40000 387.000
7.44500 396.000
7.49000 418.000
7.53500 379.000
7.58000 383.000
7.62500 398.000
7.67000 377.000
7.71500 403.000
7.76000 406.000
7.80500 362.000
7.85000 409.000
7.89500 414.000
7.94000 406.000
7.98500 373.000
8.03000 387.000
8.07500 437.000
8.12000 369.000
8.16500 400.000
8.21000 389.000
8.25500 412.000
8.30000 393.000
8.34500 407.000
8.39000 425.000
8.43500 413.000
8.48000 406.000
8.52500 420.000
8.57000 413.000
8.61500 418.000
8.66000 419.000
8.70500 408.000
8.75000 406.000
8.79500 401.000
8.84000 418.000
8.88500 392.000
8.93000 425.000
8.97500 412.000
9.02000 403.000
9.06500 404.000
9.11000 411.000
9.15500 423.000
9.20000 429.000
9.24500 382.000
9.29000 411.000
9.33500 422.000
9.38000 440.000
9.42500 388.000
9.47000 397.000
9.51500 427.000
9.56000 416.000
9.60500 393.000
9.65000 445.000
9.69500 422.000
9.74000 442.000
9.78500 405.000
9.83000 420.000
9.87500 401.000
9.92000 425.000
9.96500 400.000
10.01000 416.000
10.05500 409.000
10.10000 437.000
10.14500 418.000
10.19000 427.000
10.23500 441.000
10.28000 427.000
10.32500 399.000
10.37000 434.000
10.41500 441.000
10.46000 432.000
10.50500 439.000
10.55000 415.000
10.59500 419.000
10.64000 431.000
10.68500 403.000
10.73000 410.000
10.77500 435.000
10.82000 412.000
10.86500 421.000
10.91000 412.000
10.95500 436.000
11.00000 462.000
11.04500 416.000
11.09000 435.000
11.13500 443.000
11.18000 474.000
11.22500 457.000
11.27000 438.000
11.31500 441.000
11.36000 458.000
11.40500 449.000
11.45000 453.000
11.49500 435.000
11.54000 430.000
11.58500 444.000
11.63000 450.000
11.67500 445.000
11.72000 442.000
11.76500 418.000
11.81000 476.000
11.85500 436.000
11.90000 443.000
11.94500 436.000
11.99000 453.000
12.03500 456.000
12.08000 465.000
12.12500 423.000
12.17000 443.000
12.21500 439.000
12.26000 486.000
12.30500 443.000
12.35000 458.000
12.39500 464.000
12.44000 439.000
12.48500 464.000
12.53000 455.000
12.57500 449.000
12.62000 448.000
12.66500 459.000
12.71000 446.000
12.75500 446.000
12.80000 459.000
12.84500 442.000
12.89000 437.000
12.93500 435.000
12.98000 429.000
13.02500 463.000
13.07000 488.000
13.11500 454.000
13.16000 482.000
13.20500 450.000
13.25000 444.000
13.29500 480.000
13.34000 448.000
13.38500 486.000
13.43000 494.000
13.47500 459.000
13.52000 472.000
13.56500 450.000
13.61000 472.000
13.65500 456.000
13.70000 490.000
13.74500 451.000
13.79000 452.000
13.83500 472.000
13.88000 443.000
13.92500 462.000
13.97000 469.000
14.01500 484.000
14.06000 495.000
14.10500 491.000
14.15000 477.000
14.19500 479.000
14.24000 448.000
14.28500 461.000
14.33000 506.000
14.37500 438.000
14.42000 478.000
14.46500 464.000
14.51000 483.000
14.55500 487.000
14.60000 464.000
14.64500 483.000
14.69000 479.000
14.73500 478.000
14.78000 477.000
14.82500 487.000
14.87000 466.000
14.91500 487.000
14.96000 470.000
15.00500 513.000
15.05000 469.000
15.09500 489.000
15.14000 479.000
15.18500 490.000
15.23000 488.000
15.27500 498.000
15.32000 483.000
15.36500 498.000
15.41000 492.000
15.45500 478.000
15.50000 468.000
15.54500 461.000
15.59000 501.000
15.63500 490.000
15.68000 491.000
15.72500 476.000
15.77000 457.000
15.81500 478.000
15.86000 457.000
15.90500 483.000
15.95000 498.000
15.99500 497.000
16.04000 530.000
16.08500 484.000
16.13000 464.000
16.17500 514.000
16.22000 476.000
16.26500 502.000
16.31000 459.000
16.35500 496.000
16.40000 498.000
16.44500 490.000
16.49000 495.000
16.53500 478.000
16.58000 476.000
16.62500 502.000
16.67000 470.000
16.71500 496.000
16.76000 506.000
16.80500 495.000
16.85000 516.000
16.89500 530.000
16.94000 487.000
16.98500 514.000
17.03000 494.000
17.07500 482.000
17.12000 496.000
17.16500 469.000
17.21000 502.000
17.25500 499.000
17.30000 481.000
17.34500 522.000
17.39000 462.000
17.43500 501.000
17.48000 509.000
17.52500 536.000
17.57000 533.000
17.61500 507.000
17.66000 509.000
17.70500 515.000
17.75000 520.000
17.79500 499.000
17.84000 544.000
17.88500 505.000
17.93000 512.000
17.97500 507.000
18.02000 490.000
18.06500 514.000
18.11000 543.000
18.15500 502.000
18.20000 486.000
18.24500 547.000
18.29000 490.000
18.33500 503.000
18.38000 487.000
18.42500 515.000
18.47000 536.000
18.51500 530.000
18.56000 541.000
18.60500 510.000
18.65000 514.000
18.69500 504.000
18.74000 528.000
18.78500 512.000
18.83000 541.000
18.87500 531.000
18.92000 513.000
18.96500 498.000
19.01000 514.000
19.05500 547.000
19.10000 544.000
19.14500 497.000
19.19000 554.000
19.23500 531.000
19.28000 514.000
19.32500 536.000
19.37000 492.000
19.41500 565.000
19.46000 529.000
19.50500 510.000
19.55000 498.000
19.59500 540.000
19.64000 511.000
19.68500 547.000
19.73000 549.000
19.77500 520.000
19.82000 489.000
19.86500 504.000
19.91000 532.000
19.95500 510.000
20.00000 512.000
20.04500 523.000
20.09000 555.000
20.13500 567.000
20.18000 507.000
20.22500 531.000
20.27000 535.000
20.31500 516.000
20.36000 533.000
20.40500 537.000
20.45000 527.000
20.49500 520.000
20.54000 514.000
20.58500 548.000
20.63000 533.000
20.67500 529.000
20.72000 507.000
20.76500 554.000
20.81000 541.000
20.85500 525.000
20.90000 544.000
20.94500 520.000
20.99000 566.000
21.03500 555.000
21.08000 534.000
21.12500 570.000
21.17000 547.000
21.21500 503.000
21.26000 536.000
21.30500 530.000
21.35000 563.000
21.39500 543.000
21.44000 530.000
21.48500 556.000
21.53000 496.000
21.57500 529.000
21.62000 540.000
21.66500 539.000
21.71000 560.000
21.75500 522.000
21.80000 524.000
21.84500 520.000
21.89000 530.000
21.93500 516.000
21.98000 519.000
22.02500 530.000
22.07000 530.000
22.11500 524.000
22.16000 536.000
22.20500 543.000
22.25000 517.000
22.29500 541.000
22.34000 545.000
22.38500 549.000
22.43000 526.000
22.47500 503.000
22.52000 567.000
22.56500 521.000
22.61000 523.000
22.65500 561.000
22.70000 508.000
22.74500 562.000
22.79000 519.000
22.83500 496.000
22.88000 541.000
22.92500 536.000
22.97000 541.000
23.01500 560.000
23.06000 508.000
23.10500 508.000
23.15000 552.000
23.19500 525.000
23.24000 512.000
23.28500 489.000
23.33000 511.000
23.37500 494.000
23.42000 515.000
23.46500 534.000
23.51000 543.000
23.55500 540.000
23.60000 547.000
23.64500 550.000
23.69000 529.000
23.73500 526.000
23.78000 524.000
23.82500 530.000
23.87000 520.000
23.91500 527.000
23.96000 531.000
24.00500 512.000
24.05000 495.000
24.09500 539.000
24.14000 483.000
24.18500 505.000
24.23000 510.000
24.27500 525.000
24.32000 515.000
24.36500 492.000
24.41000 515.000
24.45500 500.000
24.50000 503.000
24.54500 517.000
24.59000 503.000
24.63500 487.000
24.68000 500.000
24.72500 523.000
24.77000 497.000
24.81500 473.000
24.86000 522.000
24.90500 491.000
24.95000 470.000
24.99500 513.000
25.04000 494.000
25.08500 487.000
25.13000 456.000
25.17500 500.000
25.22000 487.000
25.26500 467.000
25.31000 524.000
25.35500 511.000
25.40000 516.000
25.44500 496.000
25.49000 463.000
25.53500 469.000
25.58000 470.000
25.62500 481.000
25.67000 496.000
25.71500 497.000
25.76000 485.000
25.80500 477.000
25.85000 517.000
25.89500 465.000
25.94000 533.000
25.98500 452.000
26.03000 470.000
26.07500 485.000
26.12000 467.000
26.16500 466.000
26.21000 448.000
26.25500 460.000
26.30000 463.000
26.34500 458.000
26.39000 478.000
26.43500 445.000
26.48000 476.000
26.52500 483.000
26.57000 466.000
26.61500 482.000
26.66000 445.000
26.70500 447.000
26.75000 488.000
26.79500 448.000
26.84000 463.000
26.88500 467.000
26.93000 458.000
26.97500 448.000
27.02000 464.000
27.06500 430.000
27.11000 415.000
27.15500 435.000
27.20000 447.000
27.24500 463.000
27.29000 427.000
27.33500 426.000
27.38000 422.000
27.42500 448.000
27.47000 439.000
27.51500 435.000
27.56000 411.000
27.60500 421.000
27.65000 446.000
27.69500 427.000
27.74000 430.000
27.78500 432.000
27.83000 379.000
27.87500 427.000
27.92000 450.000
27.96500 427.000
28.01000 428.000
28.05500 401.000
28.10000 399.000
28.14500 397.000
28.19000 416.000
28.23500 410.000
28.28000 409.000
28.32500 416.000
28.37000 410.000
28.41500 423.000
28.46000 391.000
28.50500 408.000
28.55000 406.000
28.59500 405.000
28.64000 395.000
28.68500 431.000
28.73000 406.000
28.77500 402.000
28.82000 382.000
28.86500 396.000
28.91000 394.000
28.95500 406.000
29.00000 385.000
29.04500 414.000
29.09000 422.000
29.13500 404.000
29.18000 409.000
29.22500 421.000
29.27000 378.000
29.31500 379.000
29.36000 387.000
29.40500 401.000
29.45000 376.000
29.49500 416.000
29.54000 404.000
29.58500 388.000
29.63000 399.000
29.67500 420.000
29.72000 398.000
29.76500 389.000
29.81000 379.000
29.85500 392.000
29.90000 372.000
29.94500 356.000
29.99000 359.000
30.03500 370.000
30.08000 368.000
30.12500 360.000
30.17000 376.000
30.21500 370.000
30.26000 385.000
30.30500 384.000
30.35000 358.000
30.39500 367.000
30.44000 372.000
30.48500 339.000
30.53000 395.000
30.57500 363.000
30.62000 349.000
30.66500 327.000
30.71000 396.000
30.75500 359.000
30.80000 330.000
30.84500 348.000
30.89000 340.000
30.93500 372.000
30.98000 347.000
31.02500 357.000
31.07000 351.000
31.11500 351.000
31.16000 360.000
31.20500 362.000
31.25000 358.000
31.29500 330.000
31.34000 345.000
31.38500 325.000
31.43000 332.000
31.47500 372.000
31.52000 347.000
31.56500 350.000
31.61000 346.000
31.65500 324.000
31.70000 311.000
31.74500 326.000
31.79000 315.000
31.83500 353.000
31.88000 310.000
31.92500 316.000
31.97000 340.000
32.01500 330.000
32.06000 316.000
32.10500 334.000
32.15000 355.000
32.19500 320.000
32.24000 339.000
32.28500 324.000
32.33000 303.000
32.37500 315.000
32.42000 331.000
32.46500 307.000
32.51000 330.000
32.55500 307.000
32.60000 344.000
32.64500 315.000
32.69000 306.000
32.73500 314.000
32.78000 312.000
32.82500 313.000
32.87000 290.000
32.91500 285.000
32.96000 319.000
33.00500 314.000
33.05000 319.000
33.09500 303.000
33.14000 304.000
33.18500 322.000
33.23000 305.000
33.27500 318.000
33.32000 322.000
33.36500 301.000
33.41000 312.000
33.45500 299.000
33.50000 283.000
33.54500 304.000
33.59000 284.000
33.63500 280.000
33.68000 286.000
33.72500 293.000
33.77000 283.000
33.81500 301.000
33.86000 275.000
33.90500 282.000
33.95000 283.000
33.99500 282.000
34.04000 287.000
34.08500 303.000
34.13000 274.000
34.17500 270.000
34.22000 267.000
34.26500 273.000
34.31000 259.000
34.35500 289.000
34.40000 270.000
34.44500 252.000
34.49000 264.000
34.53500 279.000
34.58000 289.000
34.62500 267.000
34.67000 290.000
34.71500 275.000
34.76000 270.000
34.80500 232.000
34.85000 280.000
34.89500 251.000
34.94000 258.000
34.98500 266.000
35.03000 274.000
35.07500 254.000
35.12000 239.000
35.16500 255.000
35.21000 242.000
35.25500 252.000
35.30000 260.000
35.34500 227.000
35.39000 235.000
35.43500 248.000
35.48000 230.000
35.52500 262.000
35.57000 251.000
35.61500 256.000
35.66000 248.000
35.70500 249.000
35.75000 228.000
35.79500 234.000
35.84000 247.000
35.88500 225.000
35.93000 249.000
35.97500 245.000
36.02000 242.000
36.06500 254.000
36.11000 237.000
36.15500 242.000
36.20000 230.000
36.24500 226.000
36.29000 245.000
36.33500 226.000
36.38000 225.000
36.42500 222.000
36.47000 246.000
36.51500 230.000
36.56000 245.000
36.60500 238.000
36.65000 236.000
36.69500 227.000
36.74000 235.000
36.78500 225.000
36.83000 215.000
36.87500 232.000
36.92000 233.000
36.96500 219.000
37.01000 229.000
37.05500 223.000
37.10000 223.000
37.14500 209.000
37.19000 209.000
37.23500 231.000
37.28000 224.000
37.32500 228.000
37.37000 196.000
37.41500 222.000
37.46000 210.000
37.50500 212.000
37.55000 192.000
37.59500 218.000
37.64000 189.000
37.68500 232.000
37.73000 228.000
37.77500 210.000
37.82000 193.000
37.86500 218.000
37.91000 191.000
37.95500 210.000
38.00000 225.000
38.04500 218.000
38.09000 190.000
38.13500 197.000
38.18000 188.000
38.22500 216.000
38.27000 212.000
38.31500 210.000
38.36000 186.000
38.40500 216.000
38.45000 202.000
38.49500 198.000
38.54000 214.000
38.58500 203.000
38.63000 196.000
38.67500 208.000
38.72000 200.000
38.76500 203.000
38.81000 219.000
38.85500 227.000
38.90000 191.000
38.94500 200.000
38.99000 200.000
39.03500 200.000
39.08000 187.000
39.12500 192.000
39.17000 202.000
39.21500 206.000
39.26000 197.000
39.30500 223.000
39.35000 197.000
39.39500 197.000
39.44000 198.000
39.48500 208.000
39.53000 201.000
39.57500 192.000
39.62000 211.000
39.66500 184.000
39.71000 220.000
39.75500 181.000
39.80000 188.000
39.84500 187.000
39.89000 185.000
39.93500 183.000
39.98000 193.000
40.02500 209.000
40.07000 187.000
40.11500 204.000
40.16000 177.000
40.20500 202.000
40.25000 186.000
40.29500 189.000
40.34000 195.000
40.38500 209.000
40.43000 203.000
40.47500 205.000
40.52000 194.000
40.56500 208.000
40.61000 204.000
40.65500 180.000
40.70000 186.000
40.74500 189.000
40.79000 207.000
40.83500 178.000
40.88000 184.000
40.92500 176.000
40.97000 207.000
41.01500 212.000
41.06000 188.000
41.10500 167.000
41.15000 215.000
41.19500 219.000
41.24000 193.000
41.28500 187.000
41.33000 160.000
41.37500 183.000
41.42000 179.000
41.46500 189.000
41.51000 181.000
41.55500 177.000
41.60000 190.000
41.64500 201.000
41.69000 208.000
41.73500 208.000
41.78000 174.000
41.82500 194.000
41.87000 195.000
41.91500 188.000
41.96000 184.000
42.00500 171.000
42.05000 169.000
42.09500 190.000
42.14000 193.000
42.18500 181.000
42.23000 204.000
42.27500 193.000
42.32000 193.000
42.36500 167.000
42.41000 180.000
42.45500 158.000
42.50000 186.000
42.54500 165.000
42.59000 161.000
42.63500 166.000
42.68000 207.000
42.72500 153.000
42.77000 183.000
42.81500 190.000
42.86000 167.000
42.90500 175.000
42.95000 178.000
42.99500 204.000
43.04000 190.000
43.08500 178.000
43.13000 179.000
43.17500 177.000
43.22000 177.000
43.26500 185.000
43.31000 180.000
43.35500 189.000
43.40000 172.000
43.44500 188.000
43.49000 167.000
43.53500 175.000
43.58000 186.000
43.62500 177.000
43.67000 170.000
43.71500 188.000
43.76000 170.000
43.80500 155.000
43.85000 184.000
43.89500 192.000
43.94000 175.000
43.98500 166.000
44.03000 179.000
44.07500 186.000
44.12000 171.000
44.16500 161.000
44.21000 188.000
44.25500 170.000
44.30000 168.000
44.34500 182.000
44.39000 181.000
44.43500 172.000
44.48000 159.000
44.52500 176.000
44.57000 193.000
44.61500 166.000
44.66000 205.000
44.70500 158.000
44.75000 173.000
44.79500 165.000
44.84000 160.000
44.88500 175.000
44.93000 155.000
44.97500 163.000
45.02000 174.000
45.06500 179.000
45.11000 176.000
45.15500 187.000
45.20000 156.000
45.24500 155.000
45.29000 173.000
45.33500 150.000
45.38000 186.000
45.42500 166.000
45.47000 181.000
45.51500 163.000
45.56000 151.000
45.60500 164.000
45.65000 176.000
45.69500 167.000
45.74000 159.000
45.78500 189.000
45.83000 164.000
45.87500 176.000
45.92000 160.000
45.96500 185.000
46.01000 182.000
46.05500 174.000
46.10000 170.000
46.14500 172.000
46.19000 182.000
46.23500 172.000
46.28000 182.000
46.32500 170.000
46.37000 155.000
46.41500 154.000
46.46000 163.000
46.50500 178.000
46.55000 160.000
46.59500 183.000
46.64000 164.000
46.68500 162.000
46.73000 169.000
46.77500 177.000
46.82000 150.000
46.86500 157.000
46.91000 167.000
46.95500 146.000
47.00000 163.000
47.04500 148.000
47.09000 173.000
47.13500 171.000
47.18000 167.000
47.22500 182.000
47.27000 166.000
47.31500 168.000
47.36000 143.000
47.40500 180.000
47.45000 155.000
47.49500 165.000
47.54000 168.000
47.58500 161.000
47.63000 152.000
47.67500 157.000
47.72000 160.000
47.76500 164.000
47.81000 193.000
47.85500 158.000
47.90000 147.000
47.94500 151.000
47.99000 153.000
48.03500 150.000
48.08000 147.000
48.12500 152.000
48.17000 141.000
48.21500 163.000
48.26000 158.000
48.30500 167.000
48.35000 156.000
48.39500 162.000
48.44000 145.000
48.48500 153.000
48.53000 174.000
48.57500 158.000
48.62000 153.000
48.66500 149.000
48.71000 131.000
48.75500 159.000
48.80000 157.000
48.84500 141.000
48.89000 145.000
48.93500 163.000
48.98000 157.000
49.02500 154.000
49.07000 146.000
49.11500 143.000
49.16000 150.000
49.20500 147.000
49.25000 156.000
49.29500 160.000
49.34000 131.000
49.38500 147.000
49.43000 155.000
49.47500 147.000
49.52000 158.000
49.56500 137.000
49.61000 137.000
49.65500 132.000
49.70000 137.000
49.74500 150.000
49.79000 148.000
49.83500 158.000
49.88000 153.000
49.92500 148.000
49.97000 157.000
50.01500 150.000
50.06000 143.000
50.10500 142.000
50.15000 138.000
50.19500 167.000
50.24000 157.000
50.28500 122.000
50.33000 150.000
50.37500 126.000
50.42000 149.000
50.46500 146.000
50.51000 150.000
50.55500 161.000
50.60000 150.000
50.64500 148.000
50.69000 132.000
50.73500 136.000
50.78000 140.000
50.82500 161.000
50.87000 126.000
50.91500 139.000
50.96000 138.000
51.00500 143.000
51.05000 132.000
51.09500 136.000
51.14000 140.000
51.18500 142.000
51.23000 141.000
51.27500 170.000
51.32000 143.000
51.36500 152.000
51.41000 130.000
51.45500 131.000
51.50000 147.000
51.54500 118.000
51.59000 132.000
51.63500 158.000
51.68000 140.000
51.72500 146.000
51.77000 152.000
51.81500 131.000
51.86000 134.000
51.90500 142.000
51.95000 144.000
51.99500 145.000
52.04000 122.000
52.08500 145.000
52.13000 129.000
52.17500 133.000
52.22000 140.000
52.26500 123.000
52.31000 138.000
52.35500 129.000
52.40000 139.000
52.44500 130.000
52.49000 133.000
52.53500 149.000
52.58000 146.000
52.62500 144.000
52.67000 138.000
52.71500 134.000
52.76000 146.000
52.80500 129.000
52.85000 129.000
52.89500 122.000
52.94000 130.000
52.98500 136.000
53.03000 143.000
53.07500 127.000
53.12000 119.000
53.16500 131.000
53.21000 150.000
53.25500 132.000
53.30000 145.000
53.34500 133.000
53.39000 123.000
53.43500 129.000
53.48000 145.000
53.52500 122.000
53.57000 142.000
53.61500 145.000
53.66000 131.000
53.70500 140.000
53.75000 129.000
53.79500 137.000
53.84000 134.000
53.88500 131.000
53.93000 126.000
53.97500 145.000
54.02000 132.000
54.06500 138.000
54.11000 146.000
54.15500 146.000
54.20000 133.000
54.24500 123.000
54.29000 145.000
54.33500 135.000
54.38000 137.000
54.42500 117.000
54.47000 128.000
54.51500 116.000
54.56000 127.000
54.60500 131.000
54.65000 127.000
54.69500 127.000
54.74000 124.000
54.78500 135.000
54.83000 129.000
54.87500 137.000
54.92000 124.000
54.96500 152.000
55.01000 128.000
55.05500 120.000
55.10000 134.000
55.14500 138.000
55.19000 121.000
55.23500 126.000
55.28000 131.000
55.32500 145.000
55.37000 113.000
55.41500 130.000
55.46000 122.000
55.50500 144.000
55.55000 133.000
55.59500 132.000
55.64000 119.000
55.68500 125.000
55.73000 151.000
55.77500 126.000
55.82000 120.000
55.86500 118.000
55.91000 121.000
55.95500 133.000
56.00000 125.000
56.04500 126.000
56.09000 122.000
56.13500 145.000
56.18000 124.000
56.22500 141.000
56.27000 111.000
56.31500 124.000
56.36000 124.000
56.40500 140.000
56.45000 124.000
56.49500 145.000
56.54000 130.000
56.58500 123.000
56.63000 146.000
56.67500 125.000
56.72000 138.000
56.76500 138.000
56.81000 122.000
56.85500 136.000
56.90000 118.000
56.94500 125.000
56.99000 132.000
57.03500 130.000
57.08000 119.000
57.12500 120.000
57.17000 128.000
57.21500 123.000
57.26000 134.000
57.30500 130.000
57.35000 119.000
57.39500 130.000
57.44000 130.000
57.48500 128.000
57.53000 129.000
57.57500 136.000
57.62000 130.000
57.66500 125.000
57.71000 138.000
57.75500 137.000
57.80000 132.000
57.84500 135.000
57.89000 132.000
57.93500 137.000
57.98000 125.000
58.02500 119.000
58.07000 127.000
58.11500 127.000
58.16000 148.000
58.20500 111.000
58.25000 120.000
58.29500 122.000
58.34000 128.000
58.38500 120.000
58.43000 116.000
58.47500 128.000
58.52000 118.000
58.56500 128.000
58.61000 134.000
58.65500 112.000
58.70000 136.000
58.74500 113.000
58.79000 127.000
58.83500 141.000
58.88000 122.000
58.92500 127.000
58.97000 130.000
59.01500 124.000
59.06000 112.000
59.10500 132.000
59.15000 122.000
59.19500 114.000
59.24000 134.000
59.28500 119.000
59.33000 125.000
59.37500 126.000
59.42000 121.000
59.46500 127.000
59.51000 123.000
59.55500 106.000
59.60000 116.000
59.64500 124.000
59.69000 111.000
59.73500 106.000
59.78000 147.000
59.82500 121.000
59.87000 141.000
59.91500 98.000
59.96000 136.000
60.00500 121.000
60.05000 130.000
60.09500 131.000
60.14000 115.000
60.18500 140.000
60.23000 127.000
60.27500 121.000
60.32000 99.000
60.36500 122.000
60.41000 116.000
60.45500 134.000
60.50000 122.000
60.54500 119.000
60.59000 115.000
60.63500 114.000
60.68000 109.000
60.72500 141.000
60.77000 122.000
60.81500 135.000
60.86000 131.000
60.90500 111.000
60.95000 120.000
60.99500 122.000
61.04000 103.000
61.08500 120.000
61.13000 138.000
61.17500 101.000
61.22000 117.000
61.26500 113.000
61.31000 134.000
61.35500 110.000
61.40000 107.000
61.44500 121.000
61.49000 92.000
61.53500 117.000
61.58000 143.000
61.62500 121.000
61.67000 120.000
61.71500 114.000
61.76000 105.000
61.80500 133.000
61.85000 117.000
61.89500 129.000
61.94000 116.000
61.98500 126.000