File: ISoD/xrd_data/HSC062.xy
2.00000 0.000
2.04500 1.000
2.09000 2.000
2.13500 2.000
2.18000 2.000
2.22500 1.000
2.27000 2.000
2.31500 3.000
2.36000 1.000
2.40500 3.000
2.45000 2.000
2.49500 2.000
2.54000 1.000
2.58500 2.000
2.63000 2.000
2.67500 1.000
2.72000 2.000
2.76500 1.000
2.81000 1.000
2.85500 2.000
2.90000 2.000
2.94500 1.000
2.99000 2.000
3.03500 9.000
3.08000 31.000
3.12500 54.000
3.17000 68.000
3.21500 92.000
3.26000 91.000
3.30500 98.000
3.35000 102.000
3.39500 102.000
3.44000 103.000
3.48500 104.000
3.53000 97.000
3.57500 99.000
3.62000 113.000
3.66500 105.000
3.71000 100.000
3.75500 114.000
3.80000 108.000
3.84500 114.000
3.89000 123.000
3.93500 113.000
3.98000 127.000
4.02500 119.000
4.07000 123.000
4.11500 139.000
4.16000 122.000
4.20500 118.000
4.25000 116.000
4.29500 137.000
4.34000 119.000
4.38500 121.000
4.43000 149.000
4.47500 140.000
4.52000 144.000
4.56500 129.000
4.61000 151.000
4.65500 134.000
4.70000 132.000
4.74500 140.000
4.79000 144.000
4.83500 156.000
4.88000 148.000
4.92500 127.000
4.97000 145.000
5.01500 159.000
5.06000 159.000
5.10500 148.000
5.15000 167.000
5.19500 156.000
5.24000 173.000
5.28500 172.000
5.33000 154.000
5.37500 163.000
5.42000 143.000
5.46500 155.000
5.51000 169.000
5.55500 163.000
5.60000 177.000
5.64500 152.000
5.69000 178.000
5.73500 163.000
5.78000 170.000
5.82500 154.000
5.87000 173.000
5.91500 165.000
5.96000 167.000
6.00500 161.000
6.05000 159.000
6.09500 185.000
6.14000 187.000
6.18500 183.000
6.23000 185.000
6.27500 171.000
6.32000 197.000
6.36500 169.000
6.41000 185.000
6.45500 203.000
6.50000 194.000
6.54500 196.000
6.59000 192.000
6.63500 179.000
6.68000 185.000
6.72500 176.000
6.77000 173.000
6.81500 206.000
6.86000 194.000
6.90500 220.000
6.95000 218.000
6.99500 230.000
7.04000 270.000
7.08500 304.000
7.13000 347.000
7.17500 431.000
7.22000 510.000
7.26500 744.000
7.31000 764.000
7.35500 377.000
7.40000 271.000
7.44500 264.000
7.49000 241.000
7.53500 247.000
7.58000 241.000
7.62500 238.000
7.67000 234.000
7.71500 221.000
7.76000 239.000
7.80500 249.000
7.85000 223.000
7.89500 241.000
7.94000 278.000
7.98500 272.000
8.03000 275.000
8.07500 297.000
8.12000 322.000
8.16500 342.000
8.21000 331.000
8.25500 369.000
8.30000 398.000
8.34500 440.000
8.39000 524.000
8.43500 611.000
8.48000 737.000
8.52500 640.000
8.57000 510.000
8.61500 425.000
8.66000 443.000
8.70500 500.000
8.75000 616.000
8.79500 796.000
8.84000 1047.000
8.88500 806.000
8.93000 432.000
8.97500 321.000
9.02000 260.000
9.06500 237.000
9.11000 244.000
9.15500 229.000
9.20000 240.000
9.24500 239.000
9.29000 217.000
9.33500 218.000
9.38000 222.000
9.42500 198.000
9.47000 220.000
9.51500 207.000
9.56000 234.000
9.60500 220.000
9.65000 219.000
9.69500 245.000
9.74000 230.000
9.78500 259.000
9.83000 240.000
9.87500 292.000
9.92000 319.000
9.96500 372.000
10.01000 403.000
10.05500 367.000
10.10000 265.000
10.14500 237.000
10.19000 222.000
10.23500 243.000
10.28000 212.000
10.32500 199.000
10.37000 223.000
10.41500 198.000
10.46000 202.000
10.50500 215.000
10.55000 206.000
10.59500 206.000
10.64000 204.000
10.68500 209.000
10.73000 190.000
10.77500 217.000
10.82000 216.000
10.86500 202.000
10.91000 192.000
10.95500 209.000
11.00000 205.000
11.04500 180.000
11.09000 217.000
11.13500 187.000
11.18000 193.000
11.22500 228.000
11.27000 177.000
11.31500 214.000
11.36000 199.000
11.40500 207.000
11.45000 206.000
11.49500 227.000
11.54000 204.000
11.58500 193.000
11.63000 210.000
11.67500 201.000
11.72000 223.000
11.76500 196.000
11.81000 218.000
11.85500 185.000
11.90000 206.000
11.94500 216.000
11.99000 201.000
12.03500 220.000
12.08000 213.000
12.12500 212.000
12.17000 203.000
12.21500 208.000
12.26000 225.000
12.30500 255.000
12.35000 260.000
12.39500 317.000
12.44000 305.000
12.48500 262.000
12.53000 258.000
12.57500 209.000
12.62000 197.000
12.66500 210.000
12.71000 237.000
12.75500 229.000
12.80000 231.000
12.84500 203.000
12.89000 215.000
12.93500 221.000
12.98000 213.000
13.02500 226.000
13.07000 205.000
13.11500 212.000
13.16000 213.000
13.20500 213.000
13.25000 220.000
13.29500 240.000
13.34000 238.000
13.38500 238.000
13.43000 228.000
13.47500 224.000
13.52000 206.000
13.56500 225.000
13.61000 207.000
13.65500 195.000
13.70000 208.000
13.74500 193.000
13.79000 206.000
13.83500 214.000
13.88000 189.000
13.92500 206.000
13.97000 217.000
14.01500 237.000
14.06000 221.000
14.10500 231.000
14.15000 236.000
14.19500 243.000
14.24000 233.000
14.28500 242.000
14.33000 237.000
14.37500 247.000
14.42000 220.000
14.46500 223.000
14.51000 228.000
14.55500 229.000
14.60000 259.000
14.64500 241.000
14.69000 267.000
14.73500 286.000
14.78000 240.000
14.82500 256.000
14.87000 236.000
14.91500 239.000
14.96000 225.000
15.00500 241.000
15.05000 223.000
15.09500 219.000
15.14000 222.000
15.18500 210.000
15.23000 218.000
15.27500 215.000
15.32000 217.000
15.36500 233.000
15.41000 214.000
15.45500 218.000
15.50000 228.000
15.54500 212.000
15.59000 244.000
15.63500 229.000
15.68000 237.000
15.72500 228.000
15.77000 235.000
15.81500 236.000
15.86000 243.000
15.90500 276.000
15.95000 224.000
15.99500 220.000
16.04000 189.000
16.08500 222.000
16.13000 230.000
16.17500 218.000
16.22000 223.000
16.26500 224.000
16.31000 227.000
16.35500 221.000
16.40000 210.000
16.44500 237.000
16.49000 223.000
16.53500 220.000
16.58000 240.000
16.62500 239.000
16.67000 234.000
16.71500 267.000
16.76000 257.000
16.80500 261.000
16.85000 264.000
16.89500 252.000
16.94000 218.000
16.98500 242.000
17.03000 248.000
17.07500 246.000
17.12000 231.000
17.16500 214.000
17.21000 221.000
17.25500 222.000
17.30000 219.000
17.34500 235.000
17.39000 235.000
17.43500 241.000
17.48000 224.000
17.52500 217.000
17.57000 238.000
17.61500 250.000
17.66000 257.000
17.70500 246.000
17.75000 247.000
17.79500 236.000
17.84000 238.000
17.88500 247.000
17.93000 225.000
17.97500 230.000
18.02000 246.000
18.06500 238.000
18.11000 237.000
18.15500 254.000
18.20000 240.000
18.24500 247.000
18.29000 240.000
18.33500 249.000
18.38000 253.000
18.42500 262.000
18.47000 240.000
18.51500 248.000
18.56000 267.000
18.60500 259.000
18.65000 227.000
18.69500 265.000
18.74000 252.000
18.78500 239.000
18.83000 237.000
18.87500 246.000
18.92000 254.000
18.96500 241.000
19.01000 254.000
19.05500 239.000
19.10000 251.000
19.14500 208.000
19.19000 261.000
19.23500 271.000
19.28000 273.000
19.32500 235.000
19.37000 240.000
19.41500 230.000
19.46000 243.000
19.50500 240.000
19.55000 245.000
19.59500 252.000
19.64000 253.000
19.68500 257.000
19.73000 293.000
19.77500 263.000
19.82000 276.000
19.86500 280.000
19.91000 271.000
19.95500 272.000
20.00000 302.000
20.04500 279.000
20.09000 298.000
20.13500 328.000
20.18000 335.000
20.22500 323.000
20.27000 297.000
20.31500 298.000
20.36000 268.000
20.40500 284.000
20.45000 263.000
20.49500 247.000
20.54000 283.000
20.58500 287.000
20.63000 294.000
20.67500 324.000
20.72000 302.000
20.76500 299.000
20.81000 316.000
20.85500 281.000
20.90000 298.000
20.94500 287.000
20.99000 314.000
21.03500 325.000
21.08000 388.000
21.12500 350.000
21.17000 323.000
21.21500 319.000
21.26000 314.000
21.30500 325.000
21.35000 318.000
21.39500 328.000
21.44000 370.000
21.48500 327.000
21.53000 334.000
21.57500 317.000
21.62000 317.000
21.66500 304.000
21.71000 313.000
21.75500 324.000
21.80000 293.000
21.84500 304.000
21.89000 307.000
21.93500 319.000
21.98000 301.000
22.02500 318.000
22.07000 321.000
22.11500 312.000
22.16000 296.000
22.20500 297.000
22.25000 329.000
22.29500 292.000
22.34000 318.000
22.38500 332.000
22.43000 329.000
22.47500 369.000
22.52000 388.000
22.56500 423.000
22.61000 457.000
22.65500 473.000
22.70000 426.000
22.74500 405.000
22.79000 402.000
22.83500 383.000
22.88000 354.000
22.92500 374.000
22.97000 347.000
23.01500 371.000
23.06000 364.000
23.10500 361.000
23.15000 379.000
23.19500 373.000
23.24000 375.000
23.28500 408.000
23.33000 361.000
23.37500 329.000
23.42000 331.000
23.46500 301.000
23.51000 288.000
23.55500 322.000
23.60000 304.000
23.64500 303.000
23.69000 306.000
23.73500 275.000
23.78000 327.000
23.82500 293.000
23.87000 306.000
23.91500 296.000
23.96000 311.000
24.00500 317.000
24.05000 302.000
24.09500 320.000
24.14000 332.000
24.18500 343.000
24.23000 369.000
24.27500 420.000
24.32000 402.000
24.36500 424.000
24.41000 419.000
24.45500 400.000
24.50000 378.000
24.54500 384.000
24.59000 354.000
24.63500 353.000
24.68000 324.000
24.72500 357.000
24.77000 341.000
24.81500 352.000
24.86000 364.000
24.90500 441.000
24.95000 447.000
24.99500 503.000
25.04000 514.000
25.08500 426.000
25.13000 380.000
25.17500 347.000
25.22000 368.000
25.26500 367.000
25.31000 346.000
25.35500 374.000
25.40000 329.000
25.44500 376.000
25.49000 342.000
25.53500 340.000
25.58000 345.000
25.62500 328.000
25.67000 344.000
25.71500 360.000
25.76000 361.000
25.80500 364.000
25.85000 383.000
25.89500 353.000
25.94000 363.000
25.98500 344.000
26.03000 374.000
26.07500 355.000
26.12000 358.000
26.16500 424.000
26.21000 405.000
26.25500 444.000
26.30000 465.000
26.34500 462.000
26.39000 492.000
26.43500 454.000
26.48000 442.000
26.52500 432.000
26.57000 445.000
26.61500 430.000
26.66000 495.000
26.70500 510.000
26.75000 626.000
26.79500 714.000
26.84000 823.000
26.88500 742.000
26.93000 740.000
26.97500 713.000
27.02000 797.000
27.06500 782.000
27.11000 768.000
27.15500 748.000
27.20000 736.000
27.24500 777.000
27.29000 782.000
27.33500 840.000
27.38000 883.000
27.42500 954.000
27.47000 1017.000
27.51500 1085.000
27.56000 1097.000
27.60500 1121.000
27.65000 1068.000
27.69500 1044.000
27.74000 1006.000
27.78500 1007.000
27.83000 947.000
27.87500 1001.000
27.92000 981.000
27.96500 954.000
28.01000 935.000
28.05500 974.000
28.10000 1001.000
28.14500 1094.000
28.19000 1108.000
28.23500 1110.000
28.28000 908.000
28.32500 803.000
28.37000 715.000
28.41500 737.000
28.46000 688.000
28.50500 716.000
28.55000 754.000
28.59500 777.000
28.64000 822.000
28.68500 843.000
28.73000 852.000
28.77500 819.000
28.82000 794.000
28.86500 742.000
28.91000 743.000
28.95500 734.000
29.00000 729.000
29.04500 784.000
29.09000 733.000
29.13500 821.000
29.18000 825.000
29.22500 804.000
29.27000 748.000
29.31500 793.000
29.36000 716.000
29.40500 720.000
29.45000 601.000
29.49500 599.000
29.54000 628.000
29.58500 611.000
29.63000 610.000
29.67500 554.000
29.72000 535.000
29.76500 583.000
29.81000 517.000
29.85500 536.000
29.90000 486.000
29.94500 453.000
29.99000 436.000
30.03500 472.000
30.08000 447.000
30.12500 459.000
30.17000 476.000
30.21500 440.000
30.26000 440.000
30.30500 416.000
30.35000 450.000
30.39500 412.000
30.44000 440.000
30.48500 458.000
30.53000 448.000
30.57500 478.000
30.62000 540.000
30.66500 581.000
30.71000 608.000
30.75500 630.000
30.80000 603.000
30.84500 592.000
30.89000 586.000
30.93500 603.000
30.98000 557.000
31.02500 554.000
31.07000 529.000
31.11500 537.000
31.16000 526.000
31.20500 526.000
31.25000 522.000
31.29500 495.000
31.34000 470.000
31.38500 471.000
31.43000 476.000
31.47500 467.000
31.52000 417.000
31.56500 423.000
31.61000 436.000
31.65500 399.000
31.70000 427.000
31.74500 431.000
31.79000 502.000
31.83500 466.000
31.88000 470.000
31.92500 439.000
31.97000 447.000
32.01500 408.000
32.06000 424.000
32.10500 425.000
32.15000 419.000
32.19500 443.000
32.24000 417.000
32.28500 402.000
32.33000 383.000
32.37500 363.000
32.42000 355.000
32.46500 344.000
32.51000 361.000
32.55500 339.000
32.60000 351.000
32.64500 343.000
32.69000 326.000
32.73500 339.000
32.78000 316.000
32.82500 352.000
32.87000 313.000
32.91500 317.000
32.96000 329.000
33.00500 321.000
33.05000 339.000
33.09500 377.000
33.14000 315.000
33.18500 328.000
33.23000 348.000
33.27500 333.000
33.32000 363.000
33.36500 355.000
33.41000 336.000
33.45500 325.000
33.50000 346.000
33.54500 298.000
33.59000 322.000
33.63500 288.000
33.68000 307.000
33.72500 334.000
33.77000 325.000
33.81500 335.000
33.86000 349.000
33.90500 349.000
33.95000 326.000
33.99500 324.000
34.04000 305.000
34.08500 314.000
34.13000 275.000
34.17500 279.000
34.22000 266.000
34.26500 245.000
34.31000 253.000
34.35500 262.000
34.40000 262.000
34.44500 256.000
34.49000 235.000
34.53500 276.000
34.58000 270.000
34.62500 250.000
34.67000 267.000
34.71500 236.000
34.76000 268.000
34.80500 262.000
34.85000 288.000
34.89500 270.000
34.94000 302.000
34.98500 316.000
35.03000 306.000
35.07500 292.000
35.12000 304.000
35.16500 314.000
35.21000 305.000
35.25500 315.000
35.30000 305.000
35.34500 344.000
35.39000 314.000
35.43500 328.000
35.48000 300.000
35.52500 304.000
35.57000 294.000
35.61500 270.000
35.66000 267.000
35.70500 265.000
35.75000 262.000
35.79500 265.000
35.84000 259.000
35.88500 270.000
35.93000 265.000
35.97500 279.000
36.02000 257.000
36.06500 268.000
36.11000 269.000
36.15500 287.000
36.20000 265.000
36.24500 260.000
36.29000 252.000
36.33500 228.000
36.38000 244.000
36.42500 239.000
36.47000 250.000
36.51500 249.000
36.56000 249.000
36.60500 237.000
36.65000 238.000
36.69500 251.000
36.74000 241.000
36.78500 265.000
36.83000 231.000
36.87500 245.000
36.92000 241.000
36.96500 248.000
37.01000 249.000
37.05500 286.000
37.10000 249.000
37.14500 280.000
37.19000 250.000
37.23500 232.000
37.28000 254.000
37.32500 279.000
37.37000 253.000
37.41500 273.000
37.46000 271.000
37.50500 280.000
37.55000 293.000
37.59500 316.000
37.64000 294.000
37.68500 290.000
37.73000 331.000
37.77500 319.000
37.82000 325.000
37.86500 314.000
37.91000 322.000
37.95500 337.000
38.00000 304.000
38.04500 329.000
38.09000 314.000
38.13500 287.000
38.18000 270.000
38.22500 282.000
38.27000 261.000
38.31500 275.000
38.36000 268.000
38.40500 276.000
38.45000 275.000
38.49500 264.000
38.54000 275.000
38.58500 282.000
38.63000 292.000
38.67500 271.000
38.72000 295.000
38.76500 274.000
38.81000 282.000
38.85500 280.000
38.90000 239.000
38.94500 270.000
38.99000 266.000
39.03500 270.000
39.08000 262.000
39.12500 242.000
39.17000 274.000
39.21500 295.000
39.26000 290.000
39.30500 315.000
39.35000 296.000
39.39500 278.000
39.44000 289.000
39.48500 285.000
39.53000 273.000
39.57500 264.000
39.62000 254.000
39.66500 263.000
39.71000 288.000
39.75500 267.000
39.80000 277.000
39.84500 221.000
39.89000 243.000
39.93500 235.000
39.98000 224.000
40.02500 223.000
40.07000 229.000
40.11500 249.000
40.16000 243.000
40.20500 233.000
40.25000 263.000
40.29500 280.000
40.34000 285.000
40.38500 284.000
40.43000 295.000
40.47500 285.000
40.52000 264.000
40.56500 275.000
40.61000 263.000
40.65500 270.000
40.70000 241.000
40.74500 237.000
40.79000 248.000
40.83500 245.000
40.88000 247.000
40.92500 232.000
40.97000 256.000
41.01500 237.000
41.06000 248.000
41.10500 218.000
41.15000 256.000
41.19500 272.000
41.24000 256.000
41.28500 263.000
41.33000 291.000
41.37500 291.000
41.42000 286.000
41.46500 276.000
41.51000 265.000
41.55500 260.000
41.60000 258.000
41.64500 257.000
41.69000 270.000
41.73500 253.000
41.78000 249.000
41.82500 265.000
41.87000 248.000
41.91500 215.000
41.96000 225.000
42.00500 251.000
42.05000 212.000
42.09500 236.000
42.14000 223.000
42.18500 226.000
42.23000 221.000
42.27500 257.000
42.32000 265.000
42.36500 244.000
42.41000 264.000
42.45500 265.000
42.50000 247.000
42.54500 244.000
42.59000 266.000
42.63500 255.000
42.68000 264.000
42.72500 247.000
42.77000 255.000
42.81500 239.000
42.86000 224.000
42.90500 237.000
42.95000 250.000
42.99500 241.000
43.04000 217.000
43.08500 231.000
43.13000 223.000
43.17500 202.000
43.22000 232.000
43.26500 218.000
43.31000 236.000
43.35500 240.000
43.40000 227.000
43.44500 258.000
43.49000 257.000
43.53500 241.000
43.58000 258.000
43.62500 268.000
43.67000 256.000
43.71500 249.000
43.76000 272.000
43.80500 243.000
43.85000 228.000
43.89500 231.000
43.94000 236.000
43.98500 221.000
44.03000 221.000
44.07500 211.000
44.12000 217.000
44.16500 207.000
44.21000 230.000
44.25500 187.000
44.30000 207.000
44.34500 236.000
44.39000 216.000
44.43500 210.000
44.48000 214.000
44.52500 221.000
44.57000 216.000
44.61500 217.000
44.66000 209.000
44.70500 207.000
44.75000 195.000
44.79500 202.000
44.84000 201.000
44.88500 193.000
44.93000 227.000
44.97500 199.000
45.02000 213.000
45.06500 220.000
45.11000 247.000
45.15500 205.000
45.20000 197.000
45.24500 221.000
45.29000 199.000
45.33500 227.000
45.38000 197.000
45.42500 210.000
45.47000 217.000
45.51500 222.000
45.56000 214.000
45.60500 231.000
45.65000 237.000
45.69500 224.000
45.74000 230.000
45.78500 234.000
45.83000 221.000
45.87500 225.000
45.92000 202.000
45.96500 239.000
46.01000 245.000
46.05500 242.000
46.10000 237.000
46.14500 244.000
46.19000 237.000
46.23500 232.000
46.28000 225.000
46.32500 230.000
46.37000 197.000
46.41500 199.000
46.46000 220.000
46.50500 207.000
46.55000 216.000
46.59500 189.000
46.64000 172.000
46.68500 203.000
46.73000 189.000
46.77500 182.000
46.82000 208.000
46.86500 186.000
46.91000 171.000
46.95500 189.000
47.00000 192.000
47.04500 181.000
47.09000 192.000
47.13500 206.000
47.18000 195.000
47.22500 169.000
47.27000 173.000
47.31500 188.000
47.36000 158.000
47.40500 195.000
47.45000 171.000
47.49500 178.000
47.54000 158.000
47.58500 178.000
47.63000 168.000
47.67500 146.000
47.72000 168.000
47.76500 161.000
47.81000 180.000
47.85500 175.000
47.90000 172.000
47.94500 171.000
47.99000 176.000
48.03500 190.000
48.08000 181.000
48.12500 181.000
48.17000 190.000
48.21500 176.000
48.26000 185.000
48.30500 176.000
48.35000 175.000
48.39500 183.000
48.44000 184.000
48.48500 200.000
48.53000 215.000
48.57500 208.000
48.62000 212.000
48.66500 214.000
48.71000 218.000
48.75500 212.000
48.80000 243.000
48.84500 212.000
48.89000 218.000
48.93500 226.000
48.98000 198.000
49.02500 200.000
49.07000 198.000
49.11500 199.000
49.16000 218.000
49.20500 200.000
49.25000 183.000
49.29500 171.000
49.34000 180.000
49.38500 183.000
49.43000 177.000
49.47500 204.000
49.52000 182.000
49.56500 183.000
49.61000 180.000
49.65500 178.000
49.70000 183.000
49.74500 183.000
49.79000 198.000
49.83500 197.000
49.88000 181.000
49.92500 193.000
49.97000 187.000
50.01500 180.000
50.06000 171.000
50.10500 191.000
50.15000 148.000
50.19500 166.000
50.24000 183.000
50.28500 160.000
50.33000 151.000
50.37500 165.000
50.42000 176.000
50.46500 161.000
50.51000 151.000
50.55500 167.000
50.60000 175.000
50.64500 184.000
50.69000 144.000
50.73500 177.000
50.78000 164.000
50.82500 163.000
50.87000 141.000
50.91500 166.000
50.96000 162.000
51.00500 177.000
51.05000 158.000
51.09500 148.000
51.14000 163.000
51.18500 153.000
51.23000 169.000
51.27500 161.000
51.32000 159.000
51.36500 160.000
51.41000 159.000
51.45500 138.000
51.50000 154.000
51.54500 151.000
51.59000 153.000
51.63500 167.000
51.68000 150.000
51.72500 160.000
51.77000 157.000
51.81500 182.000
51.86000 154.000
51.90500 163.000
51.95000 159.000
51.99500 154.000
52.04000 153.000
52.08500 159.000
52.13000 156.000
52.17500 158.000
52.22000 152.000
52.26500 152.000
52.31000 163.000
52.35500 162.000
52.40000 164.000
52.44500 161.000
52.49000 145.000
52.53500 167.000
52.58000 163.000
52.62500 147.000
52.67000 163.000
52.71500 166.000
52.76000 165.000
52.80500 145.000
52.85000 148.000
52.89500 133.000
52.94000 150.000
52.98500 151.000
53.03000 159.000
53.07500 166.000
53.12000 154.000
53.16500 131.000
53.21000 163.000
53.25500 157.000
53.30000 158.000
53.34500 140.000
53.39000 167.000
53.43500 156.000
53.48000 146.000
53.52500 154.000
53.57000 175.000
53.61500 170.000
53.66000 153.000
53.70500 153.000
53.75000 158.000
53.79500 153.000
53.84000 168.000
53.88500 168.000
53.93000 172.000
53.97500 179.000
54.02000 160.000
54.06500 175.000
54.11000 175.000
54.15500 183.000
54.20000 153.000
54.24500 160.000
54.29000 149.000
54.33500 163.000
54.38000 138.000
54.42500 157.000
54.47000 152.000
54.51500 144.000
54.56000 161.000
54.60500 156.000
54.65000 185.000
54.69500 162.000
54.74000 157.000
54.78500 163.000
54.83000 168.000
54.87500 154.000
54.92000 173.000
54.96500 160.000
55.01000 148.000
55.05500 155.000
55.10000 174.000
55.14500 166.000
55.19000 145.000
55.23500 149.000
55.28000 166.000
55.32500 156.000
55.37000 174.000
55.41500 170.000
55.46000 171.000
55.50500 194.000
55.55000 189.000
55.59500 169.000
55.64000 182.000
55.68500 185.000
55.73000 175.000
55.77500 183.000
55.82000 189.000
55.86500 196.000
55.91000 229.000
55.95500 195.000
56.00000 188.000
56.04500 229.000
56.09000 215.000
56.13500 215.000
56.18000 209.000
56.22500 216.000
56.27000 193.000
56.31500 192.000
56.36000 203.000
56.40500 209.000
56.45000 182.000
56.49500 168.000
56.54000 176.000
56.58500 178.000
56.63000 177.000
56.67500 165.000
56.72000 154.000
56.76500 167.000
56.81000 163.000
56.85500 173.000
56.90000 167.000
56.94500 156.000
56.99000 190.000
57.03500 155.000
57.08000 165.000
57.12500 164.000
57.17000 160.000
57.21500 146.000
57.26000 151.000
57.30500 138.000
57.35000 133.000
57.39500 152.000
57.44000 146.000
57.48500 159.000
57.53000 152.000
57.57500 163.000
57.62000 150.000
57.66500 156.000
57.71000 148.000
57.75500 144.000
57.80000 142.000
57.84500 157.000
57.89000 151.000
57.93500 165.000
57.98000 148.000
58.02500 131.000
58.07000 175.000
58.11500 166.000
58.16000 152.000
58.20500 148.000
58.25000 154.000
58.29500 152.000
58.34000 151.000
58.38500 170.000
58.43000 152.000
58.47500 140.000
58.52000 136.000
58.56500 141.000
58.61000 136.000
58.65500 167.000
58.70000 144.000
58.74500 164.000
58.79000 137.000
58.83500 155.000
58.88000 149.000
58.92500 137.000
58.97000 147.000
59.01500 156.000
59.06000 162.000
59.10500 133.000
59.15000 152.000
59.19500 158.000
59.24000 164.000
59.28500 153.000
59.33000 155.000
59.37500 153.000
59.42000 159.000
59.46500 133.000
59.51000 153.000
59.55500 170.000
59.60000 170.000
59.64500 137.000
59.69000 138.000
59.73500 144.000
59.78000 166.000
59.82500 144.000
59.87000 152.000
59.91500 153.000
59.96000 154.000
60.00500 144.000
60.05000 153.000
60.09500 137.000
60.14000 143.000
60.18500 137.000
60.23000 131.000
60.27500 149.000
60.32000 164.000
60.36500 152.000
60.41000 169.000
60.45500 135.000
60.50000 135.000
60.54500 133.000
60.59000 151.000
60.63500 146.000
60.68000 148.000
60.72500 149.000
60.77000 153.000
60.81500 133.000
60.86000 162.000
60.90500 146.000
60.95000 153.000
60.99500 146.000
61.04000 151.000
61.08500 144.000
61.13000 130.000
61.17500 135.000
61.22000 151.000
61.26500 139.000
61.31000 129.000
61.35500 148.000
61.40000 127.000
61.44500 147.000
61.49000 137.000
61.53500 119.000
61.58000 141.000
61.62500 143.000
61.67000 143.000
61.71500 134.000
61.76000 138.000
61.80500 132.000
61.85000 137.000
61.89500 142.000
61.94000 141.000
61.98500 140.000