File: ISoD/xrd_data/HSC079.xy
2.00000 6.000
2.04500 3.000
2.09000 2.000
2.13500 4.000
2.18000 1.000
2.22500 6.000
2.27000 3.000
2.31500 2.000
2.36000 2.000
2.40500 2.000
2.45000 4.000
2.49500 3.000
2.54000 2.000
2.58500 2.000
2.63000 1.000
2.67500 2.000
2.72000 3.000
2.76500 3.000
2.81000 1.000
2.85500 1.000
2.90000 3.000
2.94500 3.000
2.99000 4.000
3.03500 5.000
3.08000 2.000
3.12500 3.000
3.17000 7.000
3.21500 19.000
3.26000 55.000
3.30500 92.000
3.35000 154.000
3.39500 177.000
3.44000 173.000
3.48500 180.000
3.53000 178.000
3.57500 170.000
3.62000 194.000
3.66500 200.000
3.71000 188.000
3.75500 169.000
3.80000 184.000
3.84500 176.000
3.89000 165.000
3.93500 175.000
3.98000 182.000
4.02500 179.000
4.07000 184.000
4.11500 182.000
4.16000 196.000
4.20500 201.000
4.25000 198.000
4.29500 208.000
4.34000 213.000
4.38500 192.000
4.43000 204.000
4.47500 196.000
4.52000 214.000
4.56500 198.000
4.61000 189.000
4.65500 199.000
4.70000 213.000
4.74500 169.000
4.79000 189.000
4.83500 210.000
4.88000 218.000
4.92500 225.000
4.97000 216.000
5.01500 246.000
5.06000 230.000
5.10500 225.000
5.15000 231.000
5.19500 229.000
5.24000 232.000
5.28500 233.000
5.33000 206.000
5.37500 224.000
5.42000 207.000
5.46500 232.000
5.51000 239.000
5.55500 264.000
5.60000 250.000
5.64500 252.000
5.69000 217.000
5.73500 238.000
5.78000 219.000
5.82500 267.000
5.87000 260.000
5.91500 258.000
5.96000 241.000
6.00500 261.000
6.05000 243.000
6.09500 235.000
6.14000 248.000
6.18500 226.000
6.23000 233.000
6.27500 269.000
6.32000 276.000
6.36500 238.000
6.41000 245.000
6.45500 250.000
6.50000 228.000
6.54500 263.000
6.59000 261.000
6.63500 252.000
6.68000 273.000
6.72500 270.000
6.77000 259.000
6.81500 286.000
6.86000 259.000
6.90500 267.000
6.95000 251.000
6.99500 249.000
7.04000 259.000
7.08500 257.000
7.13000 277.000
7.17500 271.000
7.22000 279.000
7.26500 276.000
7.31000 262.000
7.35500 296.000
7.40000 266.000
7.44500 282.000
7.49000 264.000
7.53500 261.000
7.58000 288.000
7.62500 262.000
7.67000 285.000
7.71500 277.000
7.76000 287.000
7.80500 285.000
7.85000 297.000
7.89500 261.000
7.94000 275.000
7.98500 288.000
8.03000 295.000
8.07500 253.000
8.12000 297.000
8.16500 257.000
8.21000 301.000
8.25500 273.000
8.30000 280.000
8.34500 268.000
8.39000 296.000
8.43500 286.000
8.48000 310.000
8.52500 315.000
8.57000 290.000
8.61500 301.000
8.66000 297.000
8.70500 297.000
8.75000 274.000
8.79500 291.000
8.84000 303.000
8.88500 291.000
8.93000 300.000
8.97500 282.000
9.02000 294.000
9.06500 326.000
9.11000 308.000
9.15500 316.000
9.20000 298.000
9.24500 293.000
9.29000 335.000
9.33500 314.000
9.38000 323.000
9.42500 296.000
9.47000 314.000
9.51500 312.000
9.56000 318.000
9.60500 327.000
9.65000 323.000
9.69500 314.000
9.74000 321.000
9.78500 296.000
9.83000 279.000
9.87500 300.000
9.92000 318.000
9.96500 317.000
10.01000 304.000
10.05500 336.000
10.10000 304.000
10.14500 321.000
10.19000 325.000
10.23500 325.000
10.28000 313.000
10.32500 296.000
10.37000 314.000
10.41500 287.000
10.46000 343.000
10.50500 346.000
10.55000 303.000
10.59500 320.000
10.64000 310.000
10.68500 308.000
10.73000 301.000
10.77500 322.000
10.82000 296.000
10.86500 296.000
10.91000 310.000
10.95500 313.000
11.00000 315.000
11.04500 343.000
11.09000 307.000
11.13500 333.000
11.18000 306.000
11.22500 316.000
11.27000 316.000
11.31500 331.000
11.36000 323.000
11.40500 306.000
11.45000 318.000
11.49500 302.000
11.54000 304.000
11.58500 316.000
11.63000 323.000
11.67500 312.000
11.72000 306.000
11.76500 346.000
11.81000 332.000
11.85500 312.000
11.90000 313.000
11.94500 306.000
11.99000 329.000
12.03500 290.000
12.08000 299.000
12.12500 309.000
12.17000 317.000
12.21500 329.000
12.26000 322.000
12.30500 329.000
12.35000 352.000
12.39500 288.000
12.44000 317.000
12.48500 316.000
12.53000 321.000
12.57500 303.000
12.62000 316.000
12.66500 328.000
12.71000 312.000
12.75500 335.000
12.80000 326.000
12.84500 327.000
12.89000 329.000
12.93500 333.000
12.98000 308.000
13.02500 356.000
13.07000 330.000
13.11500 323.000
13.16000 308.000
13.20500 344.000
13.25000 331.000
13.29500 322.000
13.34000 339.000
13.38500 314.000
13.43000 322.000
13.47500 315.000
13.52000 342.000
13.56500 341.000
13.61000 330.000
13.65500 384.000
13.70000 320.000
13.74500 315.000
13.79000 366.000
13.83500 322.000
13.88000 340.000
13.92500 354.000
13.97000 326.000
14.01500 335.000
14.06000 340.000
14.10500 339.000
14.15000 363.000
14.19500 345.000
14.24000 331.000
14.28500 326.000
14.33000 346.000
14.37500 300.000
14.42000 321.000
14.46500 365.000
14.51000 349.000
14.55500 338.000
14.60000 343.000
14.64500 365.000
14.69000 352.000
14.73500 347.000
14.78000 340.000
14.82500 349.000
14.87000 335.000
14.91500 356.000
14.96000 336.000
15.00500 367.000
15.05000 387.000
15.09500 351.000
15.14000 350.000
15.18500 390.000
15.23000 353.000
15.27500 341.000
15.32000 361.000
15.36500 350.000
15.41000 355.000
15.45500 349.000
15.50000 367.000
15.54500 342.000
15.59000 341.000
15.63500 378.000
15.68000 396.000
15.72500 390.000
15.77000 354.000
15.81500 422.000
15.86000 409.000
15.90500 413.000
15.95000 367.000
15.99500 355.000
16.04000 362.000
16.08500 320.000
16.13000 372.000
16.17500 351.000
16.22000 358.000
16.26500 370.000
16.31000 354.000
16.35500 355.000
16.40000 345.000
16.44500 351.000
16.49000 345.000
16.53500 367.000
16.58000 375.000
16.62500 358.000
16.67000 364.000
16.71500 383.000
16.76000 349.000
16.80500 372.000
16.85000 358.000
16.89500 372.000
16.94000 385.000
16.98500 385.000
17.03000 357.000
17.07500 367.000
17.12000 349.000
17.16500 349.000
17.21000 381.000
17.25500 365.000
17.30000 351.000
17.34500 376.000
17.39000 367.000
17.43500 354.000
17.48000 340.000
17.52500 385.000
17.57000 387.000
17.61500 348.000
17.66000 366.000
17.70500 384.000
17.75000 376.000
17.79500 368.000
17.84000 358.000
17.88500 373.000
17.93000 359.000
17.97500 352.000
18.02000 377.000
18.06500 355.000
18.11000 359.000
18.15500 343.000
18.20000 352.000
18.24500 388.000
18.29000 358.000
18.33500 370.000
18.38000 372.000
18.42500 359.000
18.47000 348.000
18.51500 374.000
18.56000 379.000
18.60500 341.000
18.65000 356.000
18.69500 364.000
18.74000 342.000
18.78500 326.000
18.83000 338.000
18.87500 349.000
18.92000 350.000
18.96500 364.000
19.01000 372.000
19.05500 345.000
19.10000 377.000
19.14500 379.000
19.19000 395.000
19.23500 372.000
19.28000 365.000
19.32500 364.000
19.37000 373.000
19.41500 315.000
19.46000 379.000
19.50500 360.000
19.55000 355.000
19.59500 341.000
19.64000 373.000
19.68500 361.000
19.73000 368.000
19.77500 344.000
19.82000 359.000
19.86500 395.000
19.91000 361.000
19.95500 347.000
20.00000 375.000
20.04500 372.000
20.09000 375.000
20.13500 370.000
20.18000 334.000
20.22500 379.000
20.27000 362.000
20.31500 384.000
20.36000 391.000
20.40500 380.000
20.45000 321.000
20.49500 372.000
20.54000 366.000
20.58500 391.000
20.63000 373.000
20.67500 379.000
20.72000 319.000
20.76500 373.000
20.81000 373.000
20.85500 359.000
20.90000 353.000
20.94500 361.000
20.99000 386.000
21.03500 370.000
21.08000 358.000
21.12500 386.000
21.17000 365.000
21.21500 357.000
21.26000 369.000
21.30500 374.000
21.35000 364.000
21.39500 370.000
21.44000 371.000
21.48500 361.000
21.53000 362.000
21.57500 402.000
21.62000 369.000
21.66500 372.000
21.71000 368.000
21.75500 373.000
21.80000 392.000
21.84500 359.000
21.89000 386.000
21.93500 410.000
21.98000 366.000
22.02500 396.000
22.07000 370.000
22.11500 378.000
22.16000 358.000
22.20500 410.000
22.25000 356.000
22.29500 359.000
22.34000 349.000
22.38500 356.000
22.43000 356.000
22.47500 385.000
22.52000 340.000
22.56500 373.000
22.61000 337.000
22.65500 367.000
22.70000 350.000
22.74500 357.000
22.79000 407.000
22.83500 378.000
22.88000 368.000
22.92500 389.000
22.97000 345.000
23.01500 408.000
23.06000 373.000
23.10500 351.000
23.15000 396.000
23.19500 395.000
23.24000 356.000
23.28500 376.000
23.33000 322.000
23.37500 374.000
23.42000 370.000
23.46500 388.000
23.51000 356.000
23.55500 361.000
23.60000 353.000
23.64500 372.000
23.69000 375.000
23.73500 348.000
23.78000 369.000
23.82500 338.000
23.87000 345.000
23.91500 367.000
23.96000 386.000
24.00500 390.000
24.05000 369.000
24.09500 373.000
24.14000 336.000
24.18500 315.000
24.23000 395.000
24.27500 388.000
24.32000 362.000
24.36500 369.000
24.41000 359.000
24.45500 387.000
24.50000 358.000
24.54500 372.000
24.59000 379.000
24.63500 369.000
24.68000 376.000
24.72500 368.000
24.77000 333.000
24.81500 379.000
24.86000 362.000
24.90500 355.000
24.95000 357.000
24.99500 390.000
25.04000 374.000
25.08500 383.000
25.13000 357.000
25.17500 388.000
25.22000 365.000
25.26500 340.000
25.31000 336.000
25.35500 353.000
25.40000 401.000
25.44500 348.000
25.49000 396.000
25.53500 370.000
25.58000 392.000
25.62500 392.000
25.67000 378.000
25.71500 386.000
25.76000 356.000
25.80500 362.000
25.85000 348.000
25.89500 360.000
25.94000 412.000
25.98500 393.000
26.03000 351.000
26.07500 364.000
26.12000 372.000
26.16500 399.000
26.21000 368.000
26.25500 343.000
26.30000 390.000
26.34500 405.000
26.39000 390.000
26.43500 389.000
26.48000 381.000
26.52500 391.000
26.57000 397.000
26.61500 408.000
26.66000 369.000
26.70500 391.000
26.75000 407.000
26.79500 359.000
26.84000 390.000
26.88500 394.000
26.93000 385.000
26.97500 413.000
27.02000 397.000
27.06500 398.000
27.11000 428.000
27.15500 440.000
27.20000 388.000
27.24500 419.000
27.29000 455.000
27.33500 490.000
27.38000 504.000
27.42500 506.000
27.47000 500.000
27.51500 596.000
27.56000 675.000
27.60500 853.000
27.65000 1105.000
27.69500 1497.000
27.74000 2080.000
27.78500 2738.000
27.83000 2968.000
27.87500 2945.000
27.92000 2093.000
27.96500 1370.000
28.01000 1090.000
28.05500 811.000
28.10000 682.000
28.14500 617.000
28.19000 528.000
28.23500 535.000
28.28000 500.000
28.32500 468.000
28.37000 442.000
28.41500 470.000
28.46000 466.000
28.50500 453.000
28.55000 492.000
28.59500 456.000
28.64000 461.000
28.68500 393.000
28.73000 414.000
28.77500 413.000
28.82000 389.000
28.86500 405.000
28.91000 375.000
28.95500 394.000
29.00000 379.000
29.04500 365.000
29.09000 363.000
29.13500 414.000
29.18000 370.000
29.22500 391.000
29.27000 402.000
29.31500 407.000
29.36000 424.000
29.40500 443.000
29.45000 393.000
29.49500 388.000
29.54000 412.000
29.58500 381.000
29.63000 346.000
29.67500 362.000
29.72000 352.000
29.76500 334.000
29.81000 325.000
29.85500 334.000
29.90000 316.000
29.94500 327.000
29.99000 363.000
30.03500 312.000
30.08000 332.000
30.12500 334.000
30.17000 347.000
30.21500 294.000
30.26000 314.000
30.30500 309.000
30.35000 325.000
30.39500 302.000
30.44000 316.000
30.48500 320.000
30.53000 315.000
30.57500 312.000
30.62000 320.000
30.66500 306.000
30.71000 345.000
30.75500 311.000
30.80000 278.000
30.84500 290.000
30.89000 294.000
30.93500 296.000
30.98000 304.000
31.02500 308.000
31.07000 284.000
31.11500 285.000
31.16000 300.000
31.20500 277.000
31.25000 270.000
31.29500 277.000
31.34000 284.000
31.38500 263.000
31.43000 301.000
31.47500 293.000
31.52000 291.000
31.56500 268.000
31.61000 298.000
31.65500 282.000
31.70000 301.000
31.74500 275.000
31.79000 264.000
31.83500 274.000
31.88000 297.000
31.92500 278.000
31.97000 268.000
32.01500 272.000
32.06000 265.000
32.10500 277.000
32.15000 261.000
32.19500 261.000
32.24000 270.000
32.28500 276.000
32.33000 253.000
32.37500 276.000
32.42000 285.000
32.46500 278.000
32.51000 291.000
32.55500 272.000
32.60000 278.000
32.64500 271.000
32.69000 276.000
32.73500 248.000
32.78000 257.000
32.82500 277.000
32.87000 267.000
32.91500 244.000
32.96000 244.000
33.00500 253.000
33.05000 246.000
33.09500 269.000
33.14000 256.000
33.18500 256.000
33.23000 228.000
33.27500 276.000
33.32000 260.000
33.36500 253.000
33.41000 248.000
33.45500 258.000
33.50000 240.000
33.54500 242.000
33.59000 251.000
33.63500 255.000
33.68000 250.000
33.72500 262.000
33.77000 246.000
33.81500 241.000
33.86000 243.000
33.90500 240.000
33.95000 220.000
33.99500 246.000
34.04000 264.000
34.08500 236.000
34.13000 229.000
34.17500 245.000
34.22000 270.000
34.26500 230.000
34.31000 219.000
34.35500 226.000
34.40000 228.000
34.44500 254.000
34.49000 231.000
34.53500 234.000
34.58000 236.000
34.62500 217.000
34.67000 243.000
34.71500 236.000
34.76000 228.000
34.80500 252.000
34.85000 245.000
34.89500 236.000
34.94000 222.000
34.98500 228.000
35.03000 237.000
35.07500 236.000
35.12000 221.000
35.16500 230.000
35.21000 224.000
35.25500 224.000
35.30000 228.000
35.34500 212.000
35.39000 231.000
35.43500 221.000
35.48000 221.000
35.52500 231.000
35.57000 229.000
35.61500 210.000
35.66000 203.000
35.70500 182.000
35.75000 196.000
35.79500 218.000
35.84000 227.000
35.88500 218.000
35.93000 210.000
35.97500 238.000
36.02000 212.000
36.06500 219.000
36.11000 217.000
36.15500 192.000
36.20000 219.000
36.24500 196.000
36.29000 217.000
36.33500 208.000
36.38000 201.000
36.42500 188.000
36.47000 201.000
36.51500 192.000
36.56000 202.000
36.60500 195.000
36.65000 197.000
36.69500 228.000
36.74000 207.000
36.78500 220.000
36.83000 190.000
36.87500 220.000
36.92000 196.000
36.96500 199.000
37.01000 212.000
37.05500 204.000
37.10000 188.000
37.14500 200.000
37.19000 194.000
37.23500 207.000
37.28000 190.000
37.32500 215.000
37.37000 202.000
37.41500 187.000
37.46000 199.000
37.50500 182.000
37.55000 205.000
37.59500 213.000
37.64000 199.000
37.68500 193.000
37.73000 187.000
37.77500 209.000
37.82000 187.000
37.86500 182.000
37.91000 170.000
37.95500 192.000
38.00000 191.000
38.04500 196.000
38.09000 180.000
38.13500 185.000
38.18000 187.000
38.22500 201.000
38.27000 179.000
38.31500 183.000
38.36000 167.000
38.40500 189.000
38.45000 181.000
38.49500 180.000
38.54000 178.000
38.58500 182.000
38.63000 190.000
38.67500 181.000
38.72000 187.000
38.76500 177.000
38.81000 182.000
38.85500 206.000
38.90000 188.000
38.94500 191.000
38.99000 202.000
39.03500 208.000
39.08000 186.000
39.12500 175.000
39.17000 193.000
39.21500 186.000
39.26000 178.000
39.30500 186.000
39.35000 185.000
39.39500 201.000
39.44000 186.000
39.48500 180.000
39.53000 174.000
39.57500 170.000
39.62000 201.000
39.66500 173.000
39.71000 178.000
39.75500 189.000
39.80000 198.000
39.84500 181.000
39.89000 176.000
39.93500 186.000
39.98000 183.000
40.02500 172.000
40.07000 188.000
40.11500 175.000
40.16000 199.000
40.20500 193.000
40.25000 189.000
40.29500 166.000
40.34000 188.000
40.38500 192.000
40.43000 180.000
40.47500 180.000
40.52000 165.000
40.56500 162.000
40.61000 163.000
40.65500 184.000
40.70000 174.000
40.74500 158.000
40.79000 181.000
40.83500 155.000
40.88000 173.000
40.92500 161.000
40.97000 176.000
41.01500 156.000
41.06000 174.000
41.10500 181.000
41.15000 165.000
41.19500 169.000
41.24000 175.000
41.28500 185.000
41.33000 152.000
41.37500 179.000
41.42000 172.000
41.46500 165.000
41.51000 174.000
41.55500 174.000
41.60000 182.000
41.64500 167.000
41.69000 168.000
41.73500 156.000
41.78000 173.000
41.82500 157.000
41.87000 178.000
41.91500 165.000
41.96000 174.000
42.00500 162.000
42.05000 178.000
42.09500 162.000
42.14000 166.000
42.18500 177.000
42.23000 151.000
42.27500 193.000
42.32000 175.000
42.36500 159.000
42.41000 178.000
42.45500 173.000
42.50000 181.000
42.54500 172.000
42.59000 166.000
42.63500 156.000
42.68000 159.000
42.72500 178.000
42.77000 162.000
42.81500 174.000
42.86000 173.000
42.90500 158.000
42.95000 178.000
42.99500 157.000
43.04000 170.000
43.08500 163.000
43.13000 179.000
43.17500 158.000
43.22000 170.000
43.26500 164.000
43.31000 182.000
43.35500 156.000
43.40000 173.000
43.44500 176.000
43.49000 161.000
43.53500 181.000
43.58000 171.000
43.62500 169.000
43.67000 163.000
43.71500 175.000
43.76000 161.000
43.80500 165.000
43.85000 163.000
43.89500 143.000
43.94000 156.000
43.98500 138.000
44.03000 159.000
44.07500 156.000
44.12000 156.000
44.16500 173.000
44.21000 169.000
44.25500 159.000
44.30000 167.000
44.34500 154.000
44.39000 160.000
44.43500 166.000
44.48000 168.000
44.52500 160.000
44.57000 168.000
44.61500 158.000
44.66000 147.000
44.70500 159.000
44.75000 156.000
44.79500 167.000
44.84000 153.000
44.88500 149.000
44.93000 152.000
44.97500 159.000
45.02000 180.000
45.06500 147.000
45.11000 141.000
45.15500 161.000
45.20000 164.000
45.24500 166.000
45.29000 152.000
45.33500 158.000
45.38000 136.000
45.42500 157.000
45.47000 152.000
45.51500 156.000
45.56000 154.000
45.60500 166.000
45.65000 169.000
45.69500 145.000
45.74000 149.000
45.78500 161.000
45.83000 156.000
45.87500 144.000
45.92000 151.000
45.96500 155.000
46.01000 142.000
46.05500 150.000
46.10000 154.000
46.14500 156.000
46.19000 148.000
46.23500 142.000
46.28000 146.000
46.32500 142.000
46.37000 140.000
46.41500 145.000
46.46000 151.000
46.50500 158.000
46.55000 142.000
46.59500 135.000
46.64000 135.000
46.68500 159.000
46.73000 161.000
46.77500 138.000
46.82000 138.000
46.86500 139.000
46.91000 137.000
46.95500 156.000
47.00000 132.000
47.04500 176.000
47.09000 132.000
47.13500 142.000
47.18000 140.000
47.22500 135.000
47.27000 155.000
47.31500 141.000
47.36000 160.000
47.40500 149.000
47.45000 156.000
47.49500 135.000
47.54000 153.000
47.58500 144.000
47.63000 145.000
47.67500 136.000
47.72000 147.000
47.76500 148.000
47.81000 137.000
47.85500 161.000
47.90000 160.000
47.94500 143.000
47.99000 120.000
48.03500 132.000
48.08000 150.000
48.12500 140.000
48.17000 134.000
48.21500 158.000
48.26000 128.000
48.30500 141.000
48.35000 132.000
48.39500 127.000
48.44000 132.000
48.48500 143.000
48.53000 151.000
48.57500 134.000
48.62000 137.000
48.66500 142.000
48.71000 136.000
48.75500 147.000
48.80000 125.000
48.84500 127.000
48.89000 134.000
48.93500 125.000
48.98000 133.000
49.02500 149.000
49.07000 129.000
49.11500 123.000
49.16000 126.000
49.20500 134.000
49.25000 157.000
49.29500 129.000
49.34000 127.000
49.38500 124.000
49.43000 132.000
49.47500 147.000
49.52000 139.000
49.56500 130.000
49.61000 132.000
49.65500 126.000
49.70000 134.000
49.74500 134.000
49.79000 125.000
49.83500 122.000
49.88000 137.000
49.92500 130.000
49.97000 136.000
50.01500 133.000
50.06000 145.000
50.10500 122.000
50.15000 125.000
50.19500 147.000
50.24000 119.000
50.28500 129.000
50.33000 109.000
50.37500 130.000
50.42000 131.000
50.46500 125.000
50.51000 136.000
50.55500 119.000
50.60000 145.000
50.64500 118.000
50.69000 133.000
50.73500 142.000
50.78000 128.000
50.82500 129.000
50.87000 129.000
50.91500 117.000
50.96000 126.000
51.00500 124.000
51.05000 148.000
51.09500 124.000
51.14000 141.000
51.18500 123.000
51.23000 120.000
51.27500 149.000
51.32000 141.000
51.36500 129.000
51.41000 134.000
51.45500 133.000
51.50000 146.000
51.54500 127.000
51.59000 130.000
51.63500 117.000
51.68000 127.000
51.72500 119.000
51.77000 122.000
51.81500 119.000
51.86000 133.000
51.90500 131.000
51.95000 128.000
51.99500 115.000
52.04000 142.000
52.08500 125.000
52.13000 114.000
52.17500 115.000
52.22000 137.000
52.26500 129.000
52.31000 129.000
52.35500 120.000
52.40000 131.000
52.44500 117.000
52.49000 123.000
52.53500 127.000
52.58000 137.000
52.62500 107.000
52.67000 126.000
52.71500 129.000
52.76000 110.000
52.80500 137.000
52.85000 123.000
52.89500 107.000
52.94000 136.000
52.98500 117.000
53.03000 121.000
53.07500 131.000
53.12000 126.000
53.16500 137.000
53.21000 122.000
53.25500 105.000
53.30000 133.000
53.34500 131.000
53.39000 135.000
53.43500 112.000
53.48000 112.000
53.52500 138.000
53.57000 125.000
53.61500 107.000
53.66000 120.000
53.70500 125.000
53.75000 127.000
53.79500 135.000
53.84000 147.000
53.88500 121.000
53.93000 130.000
53.97500 103.000
54.02000 129.000
54.06500 133.000
54.11000 129.000
54.15500 113.000
54.20000 137.000
54.24500 129.000
54.29000 123.000
54.33500 126.000
54.38000 109.000
54.42500 120.000
54.47000 115.000
54.51500 134.000
54.56000 117.000
54.60500 108.000
54.65000 105.000
54.69500 116.000
54.74000 137.000
54.78500 120.000
54.83000 120.000
54.87500 129.000
54.92000 98.000
54.96500 117.000
55.01000 119.000
55.05500 127.000
55.10000 134.000
55.14500 135.000
55.19000 126.000
55.23500 121.000
55.28000 112.000
55.32500 120.000
55.37000 122.000
55.41500 122.000
55.46000 117.000
55.50500 109.000
55.55000 124.000
55.59500 114.000
55.64000 111.000
55.68500 124.000
55.73000 119.000
55.77500 108.000
55.82000 131.000
55.86500 112.000
55.91000 119.000
55.95500 132.000
56.00000 117.000
56.04500 134.000
56.09000 134.000
56.13500 134.000
56.18000 126.000
56.22500 130.000
56.27000 115.000
56.31500 122.000
56.36000 122.000
56.40500 107.000
56.45000 120.000
56.49500 128.000
56.54000 119.000
56.58500 134.000
56.63000 122.000
56.67500 110.000
56.72000 140.000
56.76500 115.000
56.81000 128.000
56.85500 118.000
56.90000 124.000
56.94500 131.000
56.99000 134.000
57.03500 126.000
57.08000 133.000
57.12500 123.000
57.17000 139.000
57.21500 136.000
57.26000 139.000
57.30500 157.000
57.35000 134.000
57.39500 156.000
57.44000 163.000
57.48500 172.000
57.53000 159.000
57.57500 172.000
57.62000 167.000
57.66500 158.000
57.71000 145.000
57.75500 137.000
57.80000 139.000
57.84500 135.000
57.89000 131.000
57.93500 138.000
57.98000 132.000
58.02500 121.000
58.07000 134.000
58.11500 135.000
58.16000 142.000
58.20500 120.000
58.25000 117.000
58.29500 126.000
58.34000 132.000
58.38500 130.000
58.43000 127.000
58.47500 101.000
58.52000 114.000
58.56500 108.000
58.61000 136.000
58.65500 111.000
58.70000 116.000
58.74500 103.000
58.79000 124.000
58.83500 116.000
58.88000 100.000
58.92500 114.000
58.97000 105.000
59.01500 120.000
59.06000 107.000
59.10500 131.000
59.15000 126.000
59.19500 124.000
59.24000 111.000
59.28500 126.000
59.33000 117.000
59.37500 115.000
59.42000 101.000
59.46500 101.000
59.51000 110.000
59.55500 120.000
59.60000 93.000
59.64500 114.000
59.69000 133.000
59.73500 121.000
59.78000 119.000
59.82500 110.000
59.87000 121.000
59.91500 118.000
59.96000 119.000
60.00500 113.000
60.05000 120.000
60.09500 116.000
60.14000 115.000
60.18500 120.000
60.23000 118.000
60.27500 107.000
60.32000 107.000
60.36500 128.000
60.41000 119.000
60.45500 106.000
60.50000 113.000
60.54500 130.000
60.59000 118.000
60.63500 119.000
60.68000 114.000
60.72500 97.000
60.77000 120.000
60.81500 111.000
60.86000 104.000
60.90500 100.000
60.95000 122.000
60.99500 106.000
61.04000 103.000
61.08500 113.000
61.13000 117.000
61.17500 102.000
61.22000 121.000
61.26500 116.000
61.31000 101.000
61.35500 106.000
61.40000 119.000
61.44500 108.000
61.49000 122.000
61.53500 100.000
61.58000 110.000
61.62500 112.000
61.67000 112.000
61.71500 110.000
61.76000 115.000
61.80500 132.000
61.85000 116.000
61.89500 115.000
61.94000 108.000
61.98500 118.000