File: ISoD/xrd_data/HSC059.xy
2.00000    7.000
2.04500    6.000
2.09000    8.000
2.13500    6.000
2.18000    5.000
2.22500    11.000
2.27000    4.000
2.31500    10.000
2.36000    5.000
2.40500    5.000
2.45000    9.000
2.49500    7.000
2.54000    5.000
2.58500    6.000
2.63000    6.000
2.67500    3.000
2.72000    6.000
2.76500    10.000
2.81000    4.000
2.85500    8.000
2.90000    9.000
2.94500    6.000
2.99000    9.000
3.03500    4.000
3.08000    4.000
3.12500    10.000
3.17000    20.000
3.21500    65.000
3.26000    173.000
3.30500    353.000
3.35000    489.000
3.39500    500.000
3.44000    508.000
3.48500    496.000
3.53000    472.000
3.57500    483.000
3.62000    501.000
3.66500    469.000
3.71000    470.000
3.75500    462.000
3.80000    468.000
3.84500    464.000
3.89000    477.000
3.93500    467.000
3.98000    467.000
4.02500    453.000
4.07000    461.000
4.11500    475.000
4.16000    460.000
4.20500    461.000
4.25000    505.000
4.29500    462.000
4.34000    457.000
4.38500    452.000
4.43000    462.000
4.47500    458.000
4.52000    500.000
4.56500    432.000
4.61000    469.000
4.65500    429.000
4.70000    447.000
4.74500    462.000
4.79000    464.000
4.83500    445.000
4.88000    455.000
4.92500    442.000
4.97000    453.000
5.01500    475.000
5.06000    466.000
5.10500    455.000
5.15000    476.000
5.19500    487.000
5.24000    486.000
5.28500    449.000
5.33000    423.000
5.37500    488.000
5.42000    491.000
5.46500    458.000
5.51000    480.000
5.55500    499.000
5.60000    468.000
5.64500    453.000
5.69000    467.000
5.73500    516.000
5.78000    465.000
5.82500    476.000
5.87000    464.000
5.91500    462.000
5.96000    494.000
6.00500    495.000
6.05000    475.000
6.09500    462.000
6.14000    476.000
6.18500    483.000
6.23000    522.000
6.27500    463.000
6.32000    477.000
6.36500    465.000
6.41000    504.000
6.45500    520.000
6.50000    495.000
6.54500    519.000
6.59000    518.000
6.63500    488.000
6.68000    513.000
6.72500    474.000
6.77000    493.000
6.81500    503.000
6.86000    484.000
6.90500    534.000
6.95000    498.000
6.99500    496.000
7.04000    519.000
7.08500    522.000
7.13000    486.000
7.17500    503.000
7.22000    513.000
7.26500    524.000
7.31000    491.000
7.35500    530.000
7.40000    490.000
7.44500    527.000
7.49000    525.000
7.53500    523.000
7.58000    497.000
7.62500    520.000
7.67000    528.000
7.71500    510.000
7.76000    517.000
7.80500    520.000
7.85000    518.000
7.89500    527.000
7.94000    509.000
7.98500    546.000
8.03000    533.000
8.07500    527.000
8.12000    505.000
8.16500    548.000
8.21000    531.000
8.25500    499.000
8.30000    548.000
8.34500    550.000
8.39000    583.000
8.43500    526.000
8.48000    541.000
8.52500    566.000
8.57000    556.000
8.61500    545.000
8.66000    566.000
8.70500    574.000
8.75000    522.000
8.79500    539.000
8.84000    548.000
8.88500    559.000
8.93000    553.000
8.97500    589.000
9.02000    520.000
9.06500    544.000
9.11000    572.000
9.15500    587.000
9.20000    553.000
9.24500    556.000
9.29000    558.000
9.33500    554.000
9.38000    547.000
9.42500    566.000
9.47000    562.000
9.51500    590.000
9.56000    596.000
9.60500    553.000
9.65000    555.000
9.69500    573.000
9.74000    529.000
9.78500    562.000
9.83000    577.000
9.87500    568.000
9.92000    578.000
9.96500    564.000
10.01000    578.000
10.05500    585.000
10.10000    579.000
10.14500    576.000
10.19000    588.000
10.23500    587.000
10.28000    592.000
10.32500    604.000
10.37000    629.000
10.41500    616.000
10.46000    612.000
10.50500    630.000
10.55000    624.000
10.59500    606.000
10.64000    603.000
10.68500    631.000
10.73000    581.000
10.77500    692.000
10.82000    625.000
10.86500    628.000
10.91000    611.000
10.95500    620.000
11.00000    635.000
11.04500    615.000
11.09000    599.000
11.13500    654.000
11.18000    632.000
11.22500    639.000
11.27000    613.000
11.31500    664.000
11.36000    662.000
11.40500    642.000
11.45000    651.000
11.49500    704.000
11.54000    624.000
11.58500    635.000
11.63000    644.000
11.67500    680.000
11.72000    670.000
11.76500    665.000
11.81000    699.000
11.85500    664.000
11.90000    699.000
11.94500    675.000
11.99000    696.000
12.03500    725.000
12.08000    673.000
12.12500    715.000
12.17000    754.000
12.21500    719.000
12.26000    715.000
12.30500    796.000
12.35000    784.000
12.39500    808.000
12.44000    819.000
12.48500    833.000
12.53000    868.000
12.57500    880.000
12.62000    921.000
12.66500    916.000
12.71000    990.000
12.75500    1008.000
12.80000    983.000
12.84500    908.000
12.89000    969.000
12.93500    963.000
12.98000    976.000
13.02500    1011.000
13.07000    955.000
13.11500    1016.000
13.16000    978.000
13.20500    949.000
13.25000    1032.000
13.29500    1009.000
13.34000    976.000
13.38500    960.000
13.43000    966.000
13.47500    942.000
13.52000    943.000
13.56500    927.000
13.61000    938.000
13.65500    961.000
13.70000    889.000
13.74500    929.000
13.79000    882.000
13.83500    894.000
13.88000    890.000
13.92500    884.000
13.97000    842.000
14.01500    878.000
14.06000    840.000
14.10500    889.000
14.15000    897.000
14.19500    846.000
14.24000    828.000
14.28500    842.000
14.33000    804.000
14.37500    855.000
14.42000    796.000
14.46500    817.000
14.51000    829.000
14.55500    817.000
14.60000    817.000
14.64500    768.000
14.69000    877.000
14.73500    782.000
14.78000    802.000
14.82500    792.000
14.87000    786.000
14.91500    757.000
14.96000    794.000
15.00500    815.000
15.05000    782.000
15.09500    778.000
15.14000    767.000
15.18500    763.000
15.23000    777.000
15.27500    780.000
15.32000    786.000
15.36500    783.000
15.41000    775.000
15.45500    758.000
15.50000    753.000
15.54500    777.000
15.59000    807.000
15.63500    794.000
15.68000    810.000
15.72500    760.000
15.77000    768.000
15.81500    762.000
15.86000    782.000
15.90500    778.000
15.95000    777.000
15.99500    784.000
16.04000    760.000
16.08500    791.000
16.13000    767.000
16.17500    794.000
16.22000    795.000
16.26500    799.000
16.31000    781.000
16.35500    752.000
16.40000    797.000
16.44500    770.000
16.49000    801.000
16.53500    786.000
16.58000    744.000
16.62500    795.000
16.67000    784.000
16.71500    718.000
16.76000    781.000
16.80500    783.000
16.85000    806.000
16.89500    800.000
16.94000    769.000
16.98500    807.000
17.03000    786.000
17.07500    828.000
17.12000    807.000
17.16500    793.000
17.21000    795.000
17.25500    796.000
17.30000    820.000
17.34500    775.000
17.39000    802.000
17.43500    823.000
17.48000    793.000
17.52500    851.000
17.57000    796.000
17.61500    834.000
17.66000    807.000
17.70500    818.000
17.75000    798.000
17.79500    832.000
17.84000    871.000
17.88500    821.000
17.93000    819.000
17.97500    827.000
18.02000    818.000
18.06500    820.000
18.11000    797.000
18.15500    813.000
18.20000    813.000
18.24500    787.000
18.29000    808.000
18.33500    811.000
18.38000    808.000
18.42500    845.000
18.47000    816.000
18.51500    788.000
18.56000    841.000
18.60500    799.000
18.65000    821.000
18.69500    803.000
18.74000    800.000
18.78500    787.000
18.83000    806.000
18.87500    828.000
18.92000    773.000
18.96500    792.000
19.01000    851.000
19.05500    783.000
19.10000    803.000
19.14500    772.000
19.19000    852.000
19.23500    833.000
19.28000    781.000
19.32500    775.000
19.37000    789.000
19.41500    785.000
19.46000    781.000
19.50500    749.000
19.55000    801.000
19.59500    782.000
19.64000    736.000
19.68500    793.000
19.73000    753.000
19.77500    798.000
19.82000    783.000
19.86500    795.000
19.91000    783.000
19.95500    800.000
20.00000    784.000
20.04500    850.000
20.09000    807.000
20.13500    783.000
20.18000    764.000
20.22500    807.000
20.27000    768.000
20.31500    805.000
20.36000    750.000
20.40500    803.000
20.45000    750.000
20.49500    750.000
20.54000    760.000
20.58500    782.000
20.63000    782.000
20.67500    767.000
20.72000    814.000
20.76500    792.000
20.81000    792.000
20.85500    805.000
20.90000    795.000
20.94500    794.000
20.99000    835.000
21.03500    784.000
21.08000    770.000
21.12500    821.000
21.17000    783.000
21.21500    772.000
21.26000    809.000
21.30500    790.000
21.35000    831.000
21.39500    838.000
21.44000    802.000
21.48500    799.000
21.53000    881.000
21.57500    750.000
21.62000    784.000
21.66500    814.000
21.71000    818.000
21.75500    783.000
21.80000    793.000
21.84500    789.000
21.89000    772.000
21.93500    799.000
21.98000    750.000
22.02500    815.000
22.07000    802.000
22.11500    817.000
22.16000    796.000
22.20500    817.000
22.25000    771.000
22.29500    860.000
22.34000    799.000
22.38500    877.000
22.43000    774.000
22.47500    816.000
22.52000    776.000
22.56500    784.000
22.61000    830.000
22.65500    777.000
22.70000    781.000
22.74500    762.000
22.79000    777.000
22.83500    785.000
22.88000    795.000
22.92500    780.000
22.97000    811.000
23.01500    812.000
23.06000    800.000
23.10500    826.000
23.15000    827.000
23.19500    840.000
23.24000    838.000
23.28500    838.000
23.33000    783.000
23.37500    800.000
23.42000    783.000
23.46500    811.000
23.51000    853.000
23.55500    820.000
23.60000    788.000
23.64500    834.000
23.69000    838.000
23.73500    839.000
23.78000    816.000
23.82500    816.000
23.87000    848.000
23.91500    762.000
23.96000    792.000
24.00500    818.000
24.05000    820.000
24.09500    846.000
24.14000    821.000
24.18500    874.000
24.23000    834.000
24.27500    828.000
24.32000    860.000
24.36500    871.000
24.41000    845.000
24.45500    874.000
24.50000    825.000
24.54500    809.000
24.59000    852.000
24.63500    877.000
24.68000    886.000
24.72500    885.000
24.77000    889.000
24.81500    916.000
24.86000    869.000
24.90500    896.000
24.95000    876.000
24.99500    918.000
25.04000    920.000
25.08500    953.000
25.13000    909.000
25.17500    992.000
25.22000    973.000
25.26500    984.000
25.31000    969.000
25.35500    974.000
25.40000    983.000
25.44500    990.000
25.49000    1043.000
25.53500    1031.000
25.58000    1027.000
25.62500    1105.000
25.67000    1107.000
25.71500    1053.000
25.76000    1078.000
25.80500    1144.000
25.85000    1096.000
25.89500    1154.000
25.94000    1225.000
25.98500    1250.000
26.03000    1249.000
26.07500    1288.000
26.12000    1264.000
26.16500    1349.000
26.21000    1373.000
26.25500    1440.000
26.30000    1438.000
26.34500    1465.000
26.39000    1497.000
26.43500    1530.000
26.48000    1663.000
26.52500    1660.000
26.57000    1726.000
26.61500    1752.000
26.66000    1821.000
26.70500    1918.000
26.75000    1928.000
26.79500    2053.000
26.84000    2142.000
26.88500    2115.000
26.93000    2226.000
26.97500    2360.000
27.02000    2428.000
27.06500    2397.000
27.11000    2514.000
27.15500    2541.000
27.20000    2609.000
27.24500    2634.000
27.29000    2747.000
27.33500    2793.000
27.38000    2801.000
27.42500    2748.000
27.47000    2828.000
27.51500    2879.000
27.56000    2791.000
27.60500    2743.000
27.65000    2658.000
27.69500    2540.000
27.74000    2447.000
27.78500    2380.000
27.83000    2258.000
27.87500    2178.000
27.92000    2051.000
27.96500    1914.000
28.01000    1854.000
28.05500    1798.000
28.10000    1691.000
28.14500    1585.000
28.19000    1513.000
28.23500    1476.000
28.28000    1399.000
28.32500    1476.000
28.37000    1335.000
28.41500    1301.000
28.46000    1193.000
28.50500    1193.000
28.55000    1153.000
28.59500    1124.000
28.64000    1137.000
28.68500    1078.000
28.73000    1057.000
28.77500    1077.000
28.82000    1049.000
28.86500    939.000
28.91000    995.000
28.95500    908.000
29.00000    929.000
29.04500    941.000
29.09000    909.000
29.13500    841.000
29.18000    920.000
29.22500    874.000
29.27000    869.000
29.31500    834.000
29.36000    832.000
29.40500    860.000
29.45000    774.000
29.49500    837.000
29.54000    802.000
29.58500    774.000
29.63000    771.000
29.67500    806.000
29.72000    780.000
29.76500    757.000
29.81000    753.000
29.85500    758.000
29.90000    769.000
29.94500    769.000
29.99000    746.000
30.03500    713.000
30.08000    702.000
30.12500    690.000
30.17000    706.000
30.21500    731.000
30.26000    676.000
30.30500    681.000
30.35000    685.000
30.39500    662.000
30.44000    668.000
30.48500    677.000
30.53000    695.000
30.57500    637.000
30.62000    643.000
30.66500    648.000
30.71000    660.000
30.75500    657.000
30.80000    662.000
30.84500    656.000
30.89000    682.000
30.93500    653.000
30.98000    654.000
31.02500    650.000
31.07000    664.000
31.11500    622.000
31.16000    612.000
31.20500    611.000
31.25000    577.000
31.29500    624.000
31.34000    637.000
31.38500    636.000
31.43000    583.000
31.47500    600.000
31.52000    566.000
31.56500    571.000
31.61000    616.000
31.65500    587.000
31.70000    575.000
31.74500    552.000
31.79000    546.000
31.83500    565.000
31.88000    550.000
31.92500    552.000
31.97000    574.000
32.01500    524.000
32.06000    538.000
32.10500    538.000
32.15000    561.000
32.19500    519.000
32.24000    544.000
32.28500    551.000
32.33000    525.000
32.37500    501.000
32.42000    536.000
32.46500    552.000
32.51000    531.000
32.55500    551.000
32.60000    524.000
32.64500    508.000
32.69000    517.000
32.73500    524.000
32.78000    530.000
32.82500    508.000
32.87000    523.000
32.91500    480.000
32.96000    514.000
33.00500    496.000
33.05000    508.000
33.09500    482.000
33.14000    496.000
33.18500    524.000
33.23000    498.000
33.27500    505.000
33.32000    483.000
33.36500    522.000
33.41000    495.000
33.45500    468.000
33.50000    489.000
33.54500    468.000
33.59000    468.000
33.63500    500.000
33.68000    500.000
33.72500    448.000
33.77000    473.000
33.81500    468.000
33.86000    467.000
33.90500    473.000
33.95000    473.000
33.99500    452.000
34.04000    458.000
34.08500    477.000
34.13000    454.000
34.17500    471.000
34.22000    479.000
34.26500    469.000
34.31000    483.000
34.35500    451.000
34.40000    450.000
34.44500    424.000
34.49000    452.000
34.53500    439.000
34.58000    475.000
34.62500    449.000
34.67000    459.000
34.71500    427.000
34.76000    419.000
34.80500    406.000
34.85000    442.000
34.89500    429.000
34.94000    420.000
34.98500    451.000
35.03000    446.000
35.07500    408.000
35.12000    410.000
35.16500    428.000
35.21000    426.000
35.25500    441.000
35.30000    413.000
35.34500    416.000
35.39000    437.000
35.43500    433.000
35.48000    418.000
35.52500    410.000
35.57000    403.000
35.61500    444.000
35.66000    405.000
35.70500    393.000
35.75000    392.000
35.79500    415.000
35.84000    418.000
35.88500    433.000
35.93000    410.000
35.97500    403.000
36.02000    396.000
36.06500    387.000
36.11000    438.000
36.15500    419.000
36.20000    376.000
36.24500    374.000
36.29000    426.000
36.33500    399.000
36.38000    363.000
36.42500    383.000
36.47000    408.000
36.51500    413.000
36.56000    388.000
36.60500    431.000
36.65000    396.000
36.69500    410.000
36.74000    401.000
36.78500    389.000
36.83000    381.000
36.87500    408.000
36.92000    340.000
36.96500    365.000
37.01000    423.000
37.05500    376.000
37.10000    386.000
37.14500    387.000
37.19000    377.000
37.23500    389.000
37.28000    380.000
37.32500    373.000
37.37000    374.000
37.41500    365.000
37.46000    387.000
37.50500    366.000
37.55000    339.000
37.59500    384.000
37.64000    370.000
37.68500    333.000
37.73000    381.000
37.77500    363.000
37.82000    388.000
37.86500    362.000
37.91000    354.000
37.95500    397.000
38.00000    359.000
38.04500    364.000
38.09000    401.000
38.13500    347.000
38.18000    391.000
38.22500    371.000
38.27000    347.000
38.31500    343.000
38.36000    351.000
38.40500    344.000
38.45000    385.000
38.49500    379.000
38.54000    378.000
38.58500    359.000
38.63000    364.000
38.67500    351.000
38.72000    350.000
38.76500    351.000
38.81000    374.000
38.85500    353.000
38.90000    353.000
38.94500    359.000
38.99000    396.000
39.03500    381.000
39.08000    346.000
39.12500    362.000
39.17000    372.000
39.21500    376.000
39.26000    349.000
39.30500    380.000
39.35000    374.000
39.39500    356.000
39.44000    359.000
39.48500    352.000
39.53000    344.000
39.57500    356.000
39.62000    367.000
39.66500    342.000
39.71000    360.000
39.75500    377.000
39.80000    355.000
39.84500    339.000
39.89000    342.000
39.93500    353.000
39.98000    359.000
40.02500    377.000
40.07000    363.000
40.11500    346.000
40.16000    363.000
40.20500    344.000
40.25000    345.000
40.29500    368.000
40.34000    357.000
40.38500    361.000
40.43000    381.000
40.47500    358.000
40.52000    368.000
40.56500    359.000
40.61000    361.000
40.65500    365.000
40.70000    339.000
40.74500    334.000
40.79000    368.000
40.83500    376.000
40.88000    355.000
40.92500    371.000
40.97000    352.000
41.01500    389.000
41.06000    368.000
41.10500    382.000
41.15000    379.000
41.19500    340.000
41.24000    348.000
41.28500    370.000
41.33000    351.000
41.37500    381.000
41.42000    356.000
41.46500    341.000
41.51000    354.000
41.55500    362.000
41.60000    380.000
41.64500    349.000
41.69000    343.000
41.73500    341.000
41.78000    371.000
41.82500    351.000
41.87000    332.000
41.91500    361.000
41.96000    335.000
42.00500    365.000
42.05000    348.000
42.09500    341.000
42.14000    347.000
42.18500    369.000
42.23000    373.000
42.27500    391.000
42.32000    345.000
42.36500    353.000
42.41000    359.000
42.45500    357.000
42.50000    345.000
42.54500    364.000
42.59000    359.000
42.63500    363.000
42.68000    365.000
42.72500    364.000
42.77000    351.000
42.81500    366.000
42.86000    375.000
42.90500    356.000
42.95000    382.000
42.99500    363.000
43.04000    372.000
43.08500    373.000
43.13000    396.000
43.17500    390.000
43.22000    398.000
43.26500    401.000
43.31000    370.000
43.35500    356.000
43.40000    385.000
43.44500    386.000
43.49000    380.000
43.53500    382.000
43.58000    414.000
43.62500    396.000
43.67000    419.000
43.71500    385.000
43.76000    383.000
43.80500    417.000
43.85000    400.000
43.89500    351.000
43.94000    397.000
43.98500    377.000
44.03000    394.000
44.07500    425.000
44.12000    389.000
44.16500    391.000
44.21000    414.000
44.25500    417.000
44.30000    391.000
44.34500    385.000
44.39000    424.000
44.43500    380.000
44.48000    365.000
44.52500    377.000
44.57000    366.000
44.61500    388.000
44.66000    374.000
44.70500    370.000
44.75000    377.000
44.79500    410.000
44.84000    405.000
44.88500    380.000
44.93000    407.000
44.97500    404.000
45.02000    373.000
45.06500    369.000
45.11000    369.000
45.15500    394.000
45.20000    387.000
45.24500    385.000
45.29000    396.000
45.33500    371.000
45.38000    388.000
45.42500    357.000
45.47000    379.000
45.51500    361.000
45.56000    325.000
45.60500    370.000
45.65000    376.000
45.69500    403.000
45.74000    359.000
45.78500    419.000
45.83000    388.000
45.87500    357.000
45.92000    384.000
45.96500    374.000
46.01000    345.000
46.05500    329.000
46.10000    364.000
46.14500    360.000
46.19000    353.000
46.23500    347.000
46.28000    328.000
46.32500    354.000
46.37000    352.000
46.41500    355.000
46.46000    376.000
46.50500    373.000
46.55000    358.000
46.59500    366.000
46.64000    333.000
46.68500    379.000
46.73000    359.000
46.77500    346.000
46.82000    338.000
46.86500    311.000
46.91000    340.000
46.95500    325.000
47.00000    334.000
47.04500    346.000
47.09000    342.000
47.13500    347.000
47.18000    336.000
47.22500    332.000
47.27000    356.000
47.31500    359.000
47.36000    357.000
47.40500    372.000
47.45000    331.000
47.49500    331.000
47.54000    334.000
47.58500    332.000
47.63000    324.000
47.67500    306.000
47.72000    352.000
47.76500    338.000
47.81000    331.000
47.85500    352.000
47.90000    357.000
47.94500    316.000
47.99000    333.000
48.03500    327.000
48.08000    337.000
48.12500    322.000
48.17000    332.000
48.21500    346.000
48.26000    343.000
48.30500    330.000
48.35000    330.000
48.39500    316.000
48.44000    307.000
48.48500    333.000
48.53000    317.000
48.57500    325.000
48.62000    323.000
48.66500    301.000
48.71000    333.000
48.75500    327.000
48.80000    320.000
48.84500    338.000
48.89000    347.000
48.93500    315.000
48.98000    329.000
49.02500    353.000
49.07000    327.000
49.11500    297.000
49.16000    306.000
49.20500    309.000
49.25000    288.000
49.29500    316.000
49.34000    303.000
49.38500    313.000
49.43000    291.000
49.47500    303.000
49.52000    326.000
49.56500    282.000
49.61000    303.000
49.65500    311.000
49.70000    315.000
49.74500    306.000
49.79000    278.000
49.83500    306.000
49.88000    321.000
49.92500    314.000
49.97000    323.000
50.01500    316.000
50.06000    315.000
50.10500    294.000
50.15000    310.000
50.19500    343.000
50.24000    302.000
50.28500    332.000
50.33000    329.000
50.37500    306.000
50.42000    314.000
50.46500    329.000
50.51000    319.000
50.55500    327.000
50.60000    318.000
50.64500    299.000
50.69000    334.000
50.73500    303.000
50.78000    295.000
50.82500    303.000
50.87000    291.000
50.91500    283.000
50.96000    289.000
51.00500    336.000
51.05000    294.000
51.09500    320.000
51.14000    296.000
51.18500    300.000
51.23000    309.000
51.27500    304.000
51.32000    322.000
51.36500    309.000
51.41000    332.000
51.45500    297.000
51.50000    298.000
51.54500    311.000
51.59000    294.000
51.63500    308.000
51.68000    294.000
51.72500    341.000
51.77000    312.000
51.81500    305.000
51.86000    299.000
51.90500    288.000
51.95000    283.000
51.99500    279.000
52.04000    303.000
52.08500    320.000
52.13000    283.000
52.17500    297.000
52.22000    296.000
52.26500    274.000
52.31000    299.000
52.35500    300.000
52.40000    276.000
52.44500    320.000
52.49000    286.000
52.53500    326.000
52.58000    313.000
52.62500    311.000
52.67000    297.000
52.71500    290.000
52.76000    303.000
52.80500    317.000
52.85000    288.000
52.89500    284.000
52.94000    311.000
52.98500    308.000
53.03000    295.000
53.07500    305.000
53.12000    272.000
53.16500    313.000
53.21000    304.000
53.25500    291.000
53.30000    311.000
53.34500    316.000
53.39000    266.000
53.43500    305.000
53.48000    268.000
53.52500    306.000
53.57000    310.000
53.61500    318.000
53.66000    301.000
53.70500    303.000
53.75000    285.000
53.79500    300.000
53.84000    308.000
53.88500    291.000
53.93000    280.000
53.97500    304.000
54.02000    277.000
54.06500    292.000
54.11000    287.000
54.15500    283.000
54.20000    264.000
54.24500    294.000
54.29000    326.000
54.33500    272.000
54.38000    278.000
54.42500    296.000
54.47000    280.000
54.51500    290.000
54.56000    278.000
54.60500    276.000
54.65000    290.000
54.69500    285.000
54.74000    265.000
54.78500    297.000
54.83000    315.000
54.87500    272.000
54.92000    304.000
54.96500    283.000
55.01000    284.000
55.05500    299.000
55.10000    321.000
55.14500    316.000
55.19000    304.000
55.23500    312.000
55.28000    286.000
55.32500    311.000
55.37000    306.000
55.41500    283.000
55.46000    275.000
55.50500    298.000
55.55000    314.000
55.59500    308.000
55.64000    299.000
55.68500    297.000
55.73000    270.000
55.77500    269.000
55.82000    295.000
55.86500    288.000
55.91000    283.000
55.95500    314.000
56.00000    296.000
56.04500    317.000
56.09000    294.000
56.13500    310.000
56.18000    298.000
56.22500    305.000
56.27000    327.000
56.31500    318.000
56.36000    304.000
56.40500    311.000
56.45000    295.000
56.49500    328.000
56.54000    313.000
56.58500    312.000
56.63000    300.000
56.67500    291.000
56.72000    313.000
56.76500    330.000
56.81000    312.000
56.85500    302.000
56.90000    294.000
56.94500    295.000
56.99000    318.000
57.03500    299.000
57.08000    307.000
57.12500    303.000
57.17000    296.000
57.21500    283.000
57.26000    307.000
57.30500    306.000
57.35000    286.000
57.39500    296.000
57.44000    289.000
57.48500    299.000
57.53000    279.000
57.57500    285.000
57.62000    303.000
57.66500    294.000
57.71000    282.000
57.75500    266.000
57.80000    284.000
57.84500    245.000
57.89000    284.000
57.93500    281.000
57.98000    257.000
58.02500    290.000
58.07000    251.000
58.11500    273.000
58.16000    264.000
58.20500    257.000
58.25000    239.000
58.29500    270.000
58.34000    273.000
58.38500    274.000
58.43000    243.000
58.47500    266.000
58.52000    260.000
58.56500    263.000
58.61000    262.000
58.65500    249.000
58.70000    269.000
58.74500    255.000
58.79000    238.000
58.83500    264.000
58.88000    236.000
58.92500    225.000
58.97000    251.000
59.01500    269.000
59.06000    257.000
59.10500    266.000
59.15000    248.000
59.19500    248.000
59.24000    256.000
59.28500    236.000
59.33000    243.000
59.37500    234.000
59.42000    245.000
59.46500    245.000
59.51000    235.000
59.55500    245.000
59.60000    269.000
59.64500    215.000
59.69000    255.000
59.73500    257.000
59.78000    241.000
59.82500    240.000
59.87000    247.000
59.91500    239.000
59.96000    231.000
60.00500    238.000
60.05000    217.000
60.09500    225.000
60.14000    226.000
60.18500    208.000
60.23000    258.000
60.27500    237.000
60.32000    215.000
60.36500    231.000
60.41000    261.000
60.45500    229.000
60.50000    231.000
60.54500    241.000
60.59000    235.000
60.63500    263.000
60.68000    255.000
60.72500    220.000
60.77000    218.000
60.81500    224.000
60.86000    219.000
60.90500    230.000
60.95000    221.000
60.99500    219.000
61.04000    240.000
61.08500    218.000
61.13000    219.000
61.17500    233.000
61.22000    226.000
61.26500    219.000
61.31000    221.000
61.35500    245.000
61.40000    247.000
61.44500    239.000
61.49000    236.000
61.53500    223.000
61.58000    214.000
61.62500    234.000
61.67000    202.000
61.71500    212.000
61.76000    241.000
61.80500    207.000
61.85000    213.000
61.89500    221.000
61.94000    225.000
61.98500    224.000