File: ISoD/xrd_data/HSC034_extraktion.xy
2.00000 2.000
2.04500 2.000
2.09000 3.000
2.13500 1.000
2.18000 2.000
2.22500 1.000
2.27000 1.000
2.31500 2.000
2.36000 2.000
2.40500 2.000
2.45000 3.000
2.49500 3.000
2.54000 2.000
2.58500 1.000
2.63000 2.000
2.67500 2.000
2.72000 2.000
2.76500 6.000
2.81000 8.000
2.85500 16.000
2.90000 34.000
2.94500 77.000
2.99000 148.000
3.03500 226.000
3.08000 214.000
3.12500 225.000
3.17000 229.000
3.21500 228.000
3.26000 221.000
3.30500 207.000
3.35000 218.000
3.39500 233.000
3.44000 207.000
3.48500 200.000
3.53000 245.000
3.57500 201.000
3.62000 214.000
3.66500 233.000
3.71000 210.000
3.75500 218.000
3.80000 240.000
3.84500 204.000
3.89000 208.000
3.93500 227.000
3.98000 220.000
4.02500 213.000
4.07000 220.000
4.11500 229.000
4.16000 229.000
4.20500 222.000
4.25000 212.000
4.29500 195.000
4.34000 210.000
4.38500 220.000
4.43000 216.000
4.47500 220.000
4.52000 223.000
4.56500 220.000
4.61000 234.000
4.65500 248.000
4.70000 223.000
4.74500 223.000
4.79000 226.000
4.83500 217.000
4.88000 187.000
4.92500 209.000
4.97000 225.000
5.01500 228.000
5.06000 210.000
5.10500 235.000
5.15000 226.000
5.19500 258.000
5.24000 230.000
5.28500 237.000
5.33000 218.000
5.37500 238.000
5.42000 236.000
5.46500 237.000
5.51000 234.000
5.55500 255.000
5.60000 249.000
5.64500 233.000
5.69000 245.000
5.73500 229.000
5.78000 257.000
5.82500 258.000
5.87000 235.000
5.91500 261.000
5.96000 247.000
6.00500 233.000
6.05000 256.000
6.09500 238.000
6.14000 256.000
6.18500 248.000
6.23000 268.000
6.27500 258.000
6.32000 253.000
6.36500 252.000
6.41000 256.000
6.45500 258.000
6.50000 243.000
6.54500 264.000
6.59000 259.000
6.63500 278.000
6.68000 294.000
6.72500 278.000
6.77000 271.000
6.81500 275.000
6.86000 275.000
6.90500 269.000
6.95000 246.000
6.99500 278.000
7.04000 261.000
7.08500 271.000
7.13000 281.000
7.17500 306.000
7.22000 255.000
7.26500 288.000
7.31000 271.000
7.35500 261.000
7.40000 299.000
7.44500 266.000
7.49000 269.000
7.53500 303.000
7.58000 283.000
7.62500 294.000
7.67000 298.000
7.71500 319.000
7.76000 317.000
7.80500 309.000
7.85000 282.000
7.89500 291.000
7.94000 307.000
7.98500 310.000
8.03000 308.000
8.07500 308.000
8.12000 321.000
8.16500 333.000
8.21000 347.000
8.25500 309.000
8.30000 319.000
8.34500 339.000
8.39000 342.000
8.43500 346.000
8.48000 337.000
8.52500 327.000
8.57000 310.000
8.61500 346.000
8.66000 338.000
8.70500 325.000
8.75000 325.000
8.79500 321.000
8.84000 312.000
8.88500 317.000
8.93000 319.000
8.97500 322.000
9.02000 306.000
9.06500 316.000
9.11000 291.000
9.15500 307.000
9.20000 312.000
9.24500 301.000
9.29000 297.000
9.33500 332.000
9.38000 323.000
9.42500 302.000
9.47000 310.000
9.51500 311.000
9.56000 318.000
9.60500 320.000
9.65000 317.000
9.69500 326.000
9.74000 325.000
9.78500 345.000
9.83000 331.000
9.87500 318.000
9.92000 330.000
9.96500 322.000
10.01000 369.000
10.05500 408.000
10.10000 405.000
10.14500 463.000
10.19000 349.000
10.23500 372.000
10.28000 339.000
10.32500 337.000
10.37000 336.000
10.41500 358.000
10.46000 367.000
10.50500 380.000
10.55000 408.000
10.59500 492.000
10.64000 569.000
10.68500 775.000
10.73000 802.000
10.77500 528.000
10.82000 450.000
10.86500 413.000
10.91000 399.000
10.95500 426.000
11.00000 424.000
11.04500 445.000
11.09000 438.000
11.13500 461.000
11.18000 467.000
11.22500 458.000
11.27000 445.000
11.31500 490.000
11.36000 490.000
11.40500 449.000
11.45000 497.000
11.49500 494.000
11.54000 489.000
11.58500 484.000
11.63000 458.000
11.67500 452.000
11.72000 455.000
11.76500 428.000
11.81000 412.000
11.85500 432.000
11.90000 457.000
11.94500 535.000
11.99000 660.000
12.03500 854.000
12.08000 832.000
12.12500 424.000
12.17000 355.000
12.21500 304.000
12.26000 306.000
12.30500 305.000
12.35000 320.000
12.39500 293.000
12.44000 303.000
12.48500 318.000
12.53000 313.000
12.57500 311.000
12.62000 327.000
12.66500 368.000
12.71000 385.000
12.75500 500.000
12.80000 370.000
12.84500 340.000
12.89000 323.000
12.93500 316.000
12.98000 314.000
13.02500 310.000
13.07000 308.000
13.11500 296.000
13.16000 299.000
13.20500 316.000
13.25000 300.000
13.29500 280.000
13.34000 288.000
13.38500 311.000
13.43000 270.000
13.47500 294.000
13.52000 283.000
13.56500 277.000
13.61000 268.000
13.65500 268.000
13.70000 287.000
13.74500 282.000
13.79000 289.000
13.83500 253.000
13.88000 268.000
13.92500 277.000
13.97000 271.000
14.01500 231.000
14.06000 258.000
14.10500 265.000
14.15000 273.000
14.19500 283.000
14.24000 260.000
14.28500 267.000
14.33000 267.000
14.37500 239.000
14.42000 261.000
14.46500 262.000
14.51000 279.000
14.55500 273.000
14.60000 276.000
14.64500 249.000
14.69000 257.000
14.73500 273.000
14.78000 271.000
14.82500 256.000
14.87000 247.000
14.91500 255.000
14.96000 242.000
15.00500 267.000
15.05000 254.000
15.09500 236.000
15.14000 251.000
15.18500 227.000
15.23000 261.000
15.27500 231.000
15.32000 268.000
15.36500 248.000
15.41000 239.000
15.45500 255.000
15.50000 227.000
15.54500 263.000
15.59000 236.000
15.63500 240.000
15.68000 253.000
15.72500 232.000
15.77000 243.000
15.81500 273.000
15.86000 249.000
15.90500 252.000
15.95000 242.000
15.99500 267.000
16.04000 245.000
16.08500 267.000
16.13000 251.000
16.17500 262.000
16.22000 276.000
16.26500 262.000
16.31000 304.000
16.35500 246.000
16.40000 264.000
16.44500 230.000
16.49000 249.000
16.53500 256.000
16.58000 257.000
16.62500 240.000
16.67000 211.000
16.71500 271.000
16.76000 238.000
16.80500 268.000
16.85000 240.000
16.89500 263.000
16.94000 275.000
16.98500 278.000
17.03000 265.000
17.07500 239.000
17.12000 248.000
17.16500 264.000
17.21000 251.000
17.25500 293.000
17.30000 326.000
17.34500 281.000
17.39000 265.000
17.43500 247.000
17.48000 247.000
17.52500 240.000
17.57000 249.000
17.61500 261.000
17.66000 266.000
17.70500 238.000
17.75000 247.000
17.79500 253.000
17.84000 244.000
17.88500 260.000
17.93000 258.000
17.97500 259.000
18.02000 248.000
18.06500 240.000
18.11000 243.000
18.15500 263.000
18.20000 242.000
18.24500 256.000
18.29000 250.000
18.33500 267.000
18.38000 265.000
18.42500 242.000
18.47000 257.000
18.51500 254.000
18.56000 248.000
18.60500 258.000
18.65000 265.000
18.69500 249.000
18.74000 237.000
18.78500 267.000
18.83000 255.000
18.87500 258.000
18.92000 262.000
18.96500 258.000
19.01000 260.000
19.05500 260.000
19.10000 265.000
19.14500 247.000
19.19000 261.000
19.23500 275.000
19.28000 259.000
19.32500 270.000
19.37000 275.000
19.41500 265.000
19.46000 243.000
19.50500 261.000
19.55000 269.000
19.59500 282.000
19.64000 251.000
19.68500 243.000
19.73000 264.000
19.77500 295.000
19.82000 272.000
19.86500 313.000
19.91000 306.000
19.95500 289.000
20.00000 260.000
20.04500 303.000
20.09000 268.000
20.13500 258.000
20.18000 248.000
20.22500 272.000
20.27000 241.000
20.31500 259.000
20.36000 241.000
20.40500 291.000
20.45000 256.000
20.49500 270.000
20.54000 285.000
20.58500 251.000
20.63000 246.000
20.67500 274.000
20.72000 274.000
20.76500 262.000
20.81000 261.000
20.85500 265.000
20.90000 256.000
20.94500 249.000
20.99000 286.000
21.03500 291.000
21.08000 271.000
21.12500 287.000
21.17000 273.000
21.21500 280.000
21.26000 260.000
21.30500 271.000
21.35000 254.000
21.39500 275.000
21.44000 298.000
21.48500 276.000
21.53000 292.000
21.57500 266.000
21.62000 289.000
21.66500 287.000
21.71000 297.000
21.75500 258.000
21.80000 285.000
21.84500 278.000
21.89000 289.000
21.93500 285.000
21.98000 275.000
22.02500 258.000
22.07000 270.000
22.11500 294.000
22.16000 285.000
22.20500 262.000
22.25000 280.000
22.29500 279.000
22.34000 291.000
22.38500 275.000
22.43000 308.000
22.47500 290.000
22.52000 296.000
22.56500 298.000
22.61000 333.000
22.65500 370.000
22.70000 363.000
22.74500 325.000
22.79000 306.000
22.83500 304.000
22.88000 289.000
22.92500 354.000
22.97000 374.000
23.01500 334.000
23.06000 298.000
23.10500 305.000
23.15000 320.000
23.19500 344.000
23.24000 376.000
23.28500 326.000
23.33000 309.000
23.37500 295.000
23.42000 301.000
23.46500 302.000
23.51000 331.000
23.55500 345.000
23.60000 328.000
23.64500 343.000
23.69000 341.000
23.73500 310.000
23.78000 276.000
23.82500 312.000
23.87000 271.000
23.91500 323.000
23.96000 334.000
24.00500 334.000
24.05000 330.000
24.09500 318.000
24.14000 321.000
24.18500 340.000
24.23000 349.000
24.27500 334.000
24.32000 319.000
24.36500 333.000
24.41000 329.000
24.45500 355.000
24.50000 341.000
24.54500 335.000
24.59000 350.000
24.63500 383.000
24.68000 352.000
24.72500 368.000
24.77000 385.000
24.81500 412.000
24.86000 421.000
24.90500 469.000
24.95000 558.000
24.99500 651.000
25.04000 557.000
25.08500 500.000
25.13000 424.000
25.17500 459.000
25.22000 487.000
25.26500 483.000
25.31000 475.000
25.35500 510.000
25.40000 548.000
25.44500 559.000
25.49000 584.000
25.53500 563.000
25.58000 592.000
25.62500 591.000
25.67000 529.000
25.71500 488.000
25.76000 514.000
25.80500 499.000
25.85000 453.000
25.89500 482.000
25.94000 461.000
25.98500 500.000
26.03000 459.000
26.07500 493.000
26.12000 498.000
26.16500 452.000
26.21000 486.000
26.25500 497.000
26.30000 518.000
26.34500 522.000
26.39000 497.000
26.43500 527.000
26.48000 525.000
26.52500 530.000
26.57000 575.000
26.61500 539.000
26.66000 540.000
26.70500 545.000
26.75000 538.000
26.79500 590.000
26.84000 619.000
26.88500 587.000
26.93000 670.000
26.97500 737.000
27.02000 916.000
27.06500 1214.000
27.11000 1576.000
27.15500 1734.000
27.20000 1391.000
27.24500 1010.000
27.29000 805.000
27.33500 737.000
27.38000 621.000
27.42500 598.000
27.47000 520.000
27.51500 523.000
27.56000 490.000
27.60500 459.000
27.65000 455.000
27.69500 429.000
27.74000 412.000
27.78500 400.000
27.83000 373.000
27.87500 346.000
27.92000 329.000
27.96500 345.000
28.01000 344.000
28.05500 324.000
28.10000 354.000
28.14500 279.000
28.19000 300.000
28.23500 293.000
28.28000 300.000
28.32500 299.000
28.37000 277.000
28.41500 253.000
28.46000 296.000
28.50500 272.000
28.55000 282.000
28.59500 264.000
28.64000 287.000
28.68500 280.000
28.73000 276.000
28.77500 291.000
28.82000 269.000
28.86500 270.000
28.91000 272.000
28.95500 255.000
29.00000 247.000
29.04500 235.000
29.09000 258.000
29.13500 237.000
29.18000 241.000
29.22500 249.000
29.27000 238.000
29.31500 261.000
29.36000 232.000
29.40500 253.000
29.45000 230.000
29.49500 239.000
29.54000 236.000
29.58500 226.000
29.63000 240.000
29.67500 249.000
29.72000 259.000
29.76500 267.000
29.81000 263.000
29.85500 234.000
29.90000 254.000
29.94500 241.000
29.99000 247.000
30.03500 253.000
30.08000 255.000
30.12500 251.000
30.17000 272.000
30.21500 301.000
30.26000 277.000
30.30500 317.000
30.35000 319.000
30.39500 386.000
30.44000 397.000
30.48500 356.000
30.53000 311.000
30.57500 273.000
30.62000 230.000
30.66500 247.000
30.71000 236.000
30.75500 234.000
30.80000 233.000
30.84500 236.000
30.89000 252.000
30.93500 249.000
30.98000 227.000
31.02500 239.000
31.07000 256.000
31.11500 252.000
31.16000 221.000
31.20500 203.000
31.25000 219.000
31.29500 235.000
31.34000 214.000
31.38500 193.000
31.43000 216.000
31.47500 210.000
31.52000 187.000
31.56500 211.000
31.61000 213.000
31.65500 214.000
31.70000 206.000
31.74500 177.000
31.79000 198.000
31.83500 196.000
31.88000 209.000
31.92500 183.000
31.97000 202.000
32.01500 201.000
32.06000 210.000
32.10500 187.000
32.15000 199.000
32.19500 191.000
32.24000 222.000
32.28500 200.000
32.33000 219.000
32.37500 189.000
32.42000 177.000
32.46500 187.000
32.51000 195.000
32.55500 197.000
32.60000 187.000
32.64500 190.000
32.69000 187.000
32.73500 194.000
32.78000 177.000
32.82500 195.000
32.87000 194.000
32.91500 207.000
32.96000 174.000
33.00500 186.000
33.05000 192.000
33.09500 183.000
33.14000 177.000
33.18500 182.000
33.23000 165.000
33.27500 182.000
33.32000 191.000
33.36500 202.000
33.41000 198.000
33.45500 208.000
33.50000 189.000
33.54500 182.000
33.59000 181.000
33.63500 169.000
33.68000 194.000
33.72500 190.000
33.77000 161.000
33.81500 170.000
33.86000 178.000
33.90500 170.000
33.95000 157.000
33.99500 185.000
34.04000 181.000
34.08500 187.000
34.13000 177.000
34.17500 176.000
34.22000 206.000
34.26500 173.000
34.31000 165.000
34.35500 164.000
34.40000 176.000
34.44500 173.000
34.49000 200.000
34.53500 208.000
34.58000 180.000
34.62500 189.000
34.67000 160.000
34.71500 202.000
34.76000 198.000
34.80500 213.000
34.85000 184.000
34.89500 178.000
34.94000 185.000
34.98500 186.000
35.03000 185.000
35.07500 168.000
35.12000 172.000
35.16500 175.000
35.21000 180.000
35.25500 176.000
35.30000 171.000
35.34500 173.000
35.39000 168.000
35.43500 157.000
35.48000 148.000
35.52500 163.000
35.57000 177.000
35.61500 174.000
35.66000 156.000
35.70500 151.000
35.75000 152.000
35.79500 136.000
35.84000 169.000
35.88500 157.000
35.93000 146.000
35.97500 150.000
36.02000 153.000
36.06500 158.000
36.11000 126.000
36.15500 144.000
36.20000 152.000
36.24500 144.000
36.29000 135.000
36.33500 132.000
36.38000 146.000
36.42500 137.000
36.47000 150.000
36.51500 144.000
36.56000 145.000
36.60500 152.000
36.65000 156.000
36.69500 133.000
36.74000 128.000
36.78500 133.000
36.83000 137.000
36.87500 149.000
36.92000 139.000
36.96500 139.000
37.01000 143.000
37.05500 149.000
37.10000 130.000
37.14500 148.000
37.19000 147.000
37.23500 132.000
37.28000 129.000
37.32500 143.000
37.37000 129.000
37.41500 144.000
37.46000 135.000
37.50500 136.000
37.55000 126.000
37.59500 136.000
37.64000 142.000
37.68500 141.000
37.73000 145.000
37.77500 128.000
37.82000 142.000
37.86500 135.000
37.91000 134.000
37.95500 151.000
38.00000 130.000
38.04500 138.000
38.09000 129.000
38.13500 120.000
38.18000 128.000
38.22500 135.000
38.27000 126.000
38.31500 139.000
38.36000 114.000
38.40500 140.000
38.45000 131.000
38.49500 129.000
38.54000 144.000
38.58500 146.000
38.63000 153.000
38.67500 125.000
38.72000 140.000
38.76500 141.000
38.81000 139.000
38.85500 145.000
38.90000 122.000
38.94500 136.000
38.99000 128.000
39.03500 131.000
39.08000 133.000
39.12500 142.000
39.17000 122.000
39.21500 132.000
39.26000 150.000
39.30500 130.000
39.35000 131.000
39.39500 125.000
39.44000 136.000
39.48500 149.000
39.53000 142.000
39.57500 147.000
39.62000 142.000
39.66500 146.000
39.71000 137.000
39.75500 148.000
39.80000 138.000
39.84500 188.000
39.89000 172.000
39.93500 148.000
39.98000 158.000
40.02500 146.000
40.07000 130.000
40.11500 154.000
40.16000 155.000
40.20500 149.000
40.25000 163.000
40.29500 156.000
40.34000 161.000
40.38500 141.000
40.43000 142.000
40.47500 125.000
40.52000 139.000
40.56500 144.000
40.61000 149.000
40.65500 142.000
40.70000 145.000
40.74500 126.000
40.79000 140.000
40.83500 154.000
40.88000 159.000
40.92500 158.000
40.97000 155.000
41.01500 158.000
41.06000 131.000
41.10500 153.000
41.15000 148.000
41.19500 141.000
41.24000 137.000
41.28500 162.000
41.33000 161.000
41.37500 160.000
41.42000 147.000
41.46500 136.000
41.51000 137.000
41.55500 127.000
41.60000 142.000
41.64500 139.000
41.69000 137.000
41.73500 135.000
41.78000 118.000
41.82500 123.000
41.87000 137.000
41.91500 153.000
41.96000 155.000
42.00500 158.000
42.05000 141.000
42.09500 144.000
42.14000 125.000
42.18500 152.000
42.23000 141.000
42.27500 131.000
42.32000 126.000
42.36500 126.000
42.41000 144.000
42.45500 113.000
42.50000 112.000
42.54500 135.000
42.59000 136.000
42.63500 152.000
42.68000 125.000
42.72500 129.000
42.77000 140.000
42.81500 133.000
42.86000 127.000
42.90500 117.000
42.95000 148.000
42.99500 135.000
43.04000 137.000
43.08500 143.000
43.13000 126.000
43.17500 121.000
43.22000 126.000
43.26500 114.000
43.31000 130.000
43.35500 146.000
43.40000 144.000
43.44500 137.000
43.49000 126.000
43.53500 123.000
43.58000 138.000
43.62500 124.000
43.67000 112.000
43.71500 112.000
43.76000 127.000
43.80500 120.000
43.85000 125.000
43.89500 115.000
43.94000 113.000
43.98500 105.000
44.03000 135.000
44.07500 135.000
44.12000 126.000
44.16500 121.000
44.21000 117.000
44.25500 128.000
44.30000 124.000
44.34500 123.000
44.39000 115.000
44.43500 105.000
44.48000 115.000
44.52500 111.000
44.57000 105.000
44.61500 130.000
44.66000 128.000
44.70500 146.000
44.75000 128.000
44.79500 136.000
44.84000 118.000
44.88500 124.000
44.93000 117.000
44.97500 131.000
45.02000 131.000
45.06500 123.000
45.11000 147.000
45.15500 114.000
45.20000 108.000
45.24500 134.000
45.29000 134.000
45.33500 135.000
45.38000 135.000
45.42500 126.000
45.47000 126.000
45.51500 125.000
45.56000 131.000
45.60500 141.000
45.65000 152.000
45.69500 148.000
45.74000 149.000
45.78500 145.000
45.83000 128.000
45.87500 137.000
45.92000 117.000
45.96500 118.000
46.01000 120.000
46.05500 140.000
46.10000 131.000
46.14500 134.000
46.19000 132.000
46.23500 130.000
46.28000 129.000
46.32500 132.000
46.37000 119.000
46.41500 117.000
46.46000 122.000
46.50500 126.000
46.55000 118.000
46.59500 105.000
46.64000 119.000
46.68500 115.000
46.73000 126.000
46.77500 115.000
46.82000 103.000
46.86500 112.000
46.91000 134.000
46.95500 112.000
47.00000 114.000
47.04500 127.000
47.09000 110.000
47.13500 120.000
47.18000 130.000
47.22500 105.000
47.27000 116.000
47.31500 114.000
47.36000 122.000
47.40500 115.000
47.45000 114.000
47.49500 115.000
47.54000 125.000
47.58500 123.000
47.63000 116.000
47.67500 117.000
47.72000 111.000
47.76500 117.000
47.81000 113.000
47.85500 126.000
47.90000 127.000
47.94500 124.000
47.99000 119.000
48.03500 112.000
48.08000 105.000
48.12500 128.000
48.17000 117.000
48.21500 125.000
48.26000 114.000
48.30500 121.000
48.35000 118.000
48.39500 127.000
48.44000 99.000
48.48500 116.000
48.53000 115.000
48.57500 110.000
48.62000 116.000
48.66500 121.000
48.71000 134.000
48.75500 112.000
48.80000 125.000
48.84500 108.000
48.89000 114.000
48.93500 101.000
48.98000 98.000
49.02500 106.000
49.07000 110.000
49.11500 93.000
49.16000 115.000
49.20500 112.000
49.25000 113.000
49.29500 91.000
49.34000 116.000
49.38500 118.000
49.43000 100.000
49.47500 122.000
49.52000 85.000
49.56500 91.000
49.61000 105.000
49.65500 100.000
49.70000 118.000
49.74500 94.000
49.79000 94.000
49.83500 100.000
49.88000 108.000
49.92500 104.000
49.97000 97.000
50.01500 111.000
50.06000 108.000
50.10500 104.000
50.15000 104.000
50.19500 92.000
50.24000 96.000
50.28500 88.000
50.33000 112.000
50.37500 91.000
50.42000 121.000
50.46500 101.000
50.51000 106.000
50.55500 117.000
50.60000 103.000
50.64500 91.000
50.69000 105.000
50.73500 102.000
50.78000 86.000
50.82500 106.000
50.87000 104.000
50.91500 106.000
50.96000 116.000
51.00500 100.000
51.05000 99.000
51.09500 116.000
51.14000 110.000
51.18500 107.000
51.23000 130.000
51.27500 108.000
51.32000 118.000
51.36500 124.000
51.41000 117.000
51.45500 111.000
51.50000 100.000
51.54500 112.000
51.59000 95.000
51.63500 103.000
51.68000 139.000
51.72500 115.000
51.77000 102.000
51.81500 105.000
51.86000 112.000
51.90500 105.000
51.95000 106.000
51.99500 107.000
52.04000 91.000
52.08500 101.000
52.13000 104.000
52.17500 96.000
52.22000 97.000
52.26500 92.000
52.31000 108.000
52.35500 108.000
52.40000 98.000
52.44500 120.000
52.49000 121.000
52.53500 112.000
52.58000 116.000
52.62500 121.000
52.67000 97.000
52.71500 112.000
52.76000 115.000
52.80500 102.000
52.85000 102.000
52.89500 106.000
52.94000 99.000
52.98500 102.000
53.03000 97.000
53.07500 128.000
53.12000 118.000
53.16500 119.000
53.21000 114.000
53.25500 124.000
53.30000 110.000
53.34500 110.000
53.39000 111.000
53.43500 98.000
53.48000 116.000
53.52500 113.000
53.57000 122.000
53.61500 120.000
53.66000 110.000
53.70500 91.000
53.75000 107.000
53.79500 128.000
53.84000 103.000
53.88500 115.000
53.93000 115.000
53.97500 105.000
54.02000 113.000
54.06500 107.000
54.11000 100.000
54.15500 111.000
54.20000 93.000
54.24500 98.000
54.29000 112.000
54.33500 101.000
54.38000 111.000
54.42500 115.000
54.47000 107.000
54.51500 105.000
54.56000 117.000
54.60500 113.000
54.65000 112.000
54.69500 104.000
54.74000 107.000
54.78500 118.000
54.83000 123.000
54.87500 94.000
54.92000 116.000
54.96500 105.000
55.01000 100.000
55.05500 104.000
55.10000 114.000
55.14500 104.000
55.19000 100.000
55.23500 112.000
55.28000 95.000
55.32500 103.000
55.37000 94.000
55.41500 92.000
55.46000 93.000
55.50500 105.000
55.55000 93.000
55.59500 109.000
55.64000 103.000
55.68500 103.000
55.73000 112.000
55.77500 89.000
55.82000 109.000
55.86500 92.000
55.91000 122.000
55.95500 114.000
56.00000 104.000
56.04500 99.000
56.09000 109.000
56.13500 112.000
56.18000 95.000
56.22500 91.000
56.27000 103.000
56.31500 105.000
56.36000 90.000
56.40500 120.000
56.45000 100.000
56.49500 97.000
56.54000 89.000
56.58500 117.000
56.63000 101.000
56.67500 94.000
56.72000 81.000
56.76500 95.000
56.81000 103.000
56.85500 102.000
56.90000 105.000
56.94500 93.000
56.99000 89.000
57.03500 90.000
57.08000 102.000
57.12500 93.000
57.17000 110.000
57.21500 92.000
57.26000 87.000
57.30500 73.000
57.35000 82.000
57.39500 84.000
57.44000 94.000
57.48500 82.000
57.53000 94.000
57.57500 103.000
57.62000 88.000
57.66500 91.000
57.71000 98.000
57.75500 102.000
57.80000 92.000
57.84500 90.000
57.89000 98.000
57.93500 87.000
57.98000 88.000
58.02500 100.000
58.07000 106.000
58.11500 96.000
58.16000 97.000
58.20500 87.000
58.25000 102.000
58.29500 76.000
58.34000 86.000
58.38500 78.000
58.43000 80.000
58.47500 90.000
58.52000 89.000
58.56500 91.000
58.61000 95.000
58.65500 92.000
58.70000 91.000
58.74500 91.000
58.79000 82.000
58.83500 86.000
58.88000 93.000
58.92500 79.000
58.97000 101.000
59.01500 95.000
59.06000 93.000
59.10500 83.000
59.15000 92.000
59.19500 81.000
59.24000 104.000
59.28500 89.000
59.33000 88.000
59.37500 99.000
59.42000 91.000
59.46500 83.000
59.51000 94.000
59.55500 85.000
59.60000 86.000
59.64500 82.000
59.69000 98.000
59.73500 89.000
59.78000 94.000
59.82500 94.000
59.87000 100.000
59.91500 82.000
59.96000 95.000
60.00500 94.000
60.05000 91.000
60.09500 76.000
60.14000 84.000
60.18500 84.000
60.23000 91.000
60.27500 82.000
60.32000 82.000
60.36500 85.000
60.41000 82.000
60.45500 99.000
60.50000 80.000
60.54500 91.000
60.59000 82.000
60.63500 83.000
60.68000 87.000
60.72500 81.000
60.77000 80.000
60.81500 82.000
60.86000 79.000
60.90500 87.000
60.95000 96.000
60.99500 93.000
61.04000 76.000
61.08500 87.000
61.13000 75.000
61.17500 74.000
61.22000 68.000
61.26500 87.000
61.31000 91.000
61.35500 85.000
61.40000 82.000
61.44500 87.000
61.49000 81.000
61.53500 63.000
61.58000 81.000
61.62500 77.000
61.67000 84.000
61.71500 83.000
61.76000 81.000
61.80500 75.000
61.85000 83.000
61.89500 74.000
61.94000 94.000
61.98500 85.000