File: ISoD/xrd_data/HSC039_2.xy
2.00000 1.000
2.04500 0.000
2.09000 1.000
2.13500 1.000
2.18000 2.000
2.22500 1.000
2.27000 1.000
2.31500 0.000
2.36000 1.000
2.40500 2.000
2.45000 2.000
2.49500 4.000
2.54000 0.000
2.58500 0.000
2.63000 1.000
2.67500 5.000
2.72000 11.000
2.76500 20.000
2.81000 44.000
2.85500 124.000
2.90000 216.000
2.94500 255.000
2.99000 245.000
3.03500 217.000
3.08000 233.000
3.12500 229.000
3.17000 207.000
3.21500 229.000
3.26000 203.000
3.30500 178.000
3.35000 202.000
3.39500 188.000
3.44000 191.000
3.48500 196.000
3.53000 184.000
3.57500 182.000
3.62000 161.000
3.66500 157.000
3.71000 178.000
3.75500 147.000
3.80000 171.000
3.84500 148.000
3.89000 165.000
3.93500 172.000
3.98000 167.000
4.02500 141.000
4.07000 158.000
4.11500 156.000
4.16000 152.000
4.20500 130.000
4.25000 138.000
4.29500 142.000
4.34000 135.000
4.38500 152.000
4.43000 131.000
4.47500 146.000
4.52000 146.000
4.56500 136.000
4.61000 111.000
4.65500 142.000
4.70000 152.000
4.74500 146.000
4.79000 136.000
4.83500 124.000
4.88000 121.000
4.92500 143.000
4.97000 136.000
5.01500 128.000
5.06000 138.000
5.10500 136.000
5.15000 140.000
5.19500 133.000
5.24000 127.000
5.28500 135.000
5.33000 119.000
5.37500 128.000
5.42000 116.000
5.46500 123.000
5.51000 145.000
5.55500 123.000
5.60000 136.000
5.64500 112.000
5.69000 141.000
5.73500 129.000
5.78000 140.000
5.82500 127.000
5.87000 130.000
5.91500 132.000
5.96000 143.000
6.00500 119.000
6.05000 127.000
6.09500 127.000
6.14000 131.000
6.18500 138.000
6.23000 156.000
6.27500 136.000
6.32000 138.000
6.36500 140.000
6.41000 148.000
6.45500 124.000
6.50000 115.000
6.54500 134.000
6.59000 129.000
6.63500 132.000
6.68000 126.000
6.72500 134.000
6.77000 128.000
6.81500 130.000
6.86000 143.000
6.90500 149.000
6.95000 143.000
6.99500 180.000
7.04000 173.000
7.08500 203.000
7.13000 220.000
7.17500 298.000
7.22000 431.000
7.26500 661.000
7.31000 903.000
7.35500 236.000
7.40000 170.000
7.44500 132.000
7.49000 136.000
7.53500 122.000
7.58000 135.000
7.62500 137.000
7.67000 142.000
7.71500 154.000
7.76000 147.000
7.80500 149.000
7.85000 141.000
7.89500 132.000
7.94000 125.000
7.98500 119.000
8.03000 113.000
8.07500 138.000
8.12000 123.000
8.16500 134.000
8.21000 128.000
8.25500 140.000
8.30000 137.000
8.34500 136.000
8.39000 133.000
8.43500 150.000
8.48000 136.000
8.52500 131.000
8.57000 136.000
8.61500 140.000
8.66000 138.000
8.70500 136.000
8.75000 131.000
8.79500 138.000
8.84000 130.000
8.88500 128.000
8.93000 130.000
8.97500 128.000
9.02000 124.000
9.06500 125.000
9.11000 134.000
9.15500 128.000
9.20000 127.000
9.24500 125.000
9.29000 127.000
9.33500 120.000
9.38000 124.000
9.42500 135.000
9.47000 119.000
9.51500 107.000
9.56000 120.000
9.60500 127.000
9.65000 120.000
9.69500 123.000
9.74000 139.000
9.78500 119.000
9.83000 123.000
9.87500 128.000
9.92000 132.000
9.96500 144.000
10.01000 151.000
10.05500 161.000
10.10000 211.000
10.14500 294.000
10.19000 440.000
10.23500 779.000
10.28000 1308.000
10.32500 1949.000
10.37000 675.000
10.41500 185.000
10.46000 154.000
10.50500 153.000
10.55000 136.000
10.59500 142.000
10.64000 126.000
10.68500 139.000
10.73000 133.000
10.77500 128.000
10.82000 117.000
10.86500 132.000
10.91000 131.000
10.95500 122.000
11.00000 130.000
11.04500 129.000
11.09000 133.000
11.13500 124.000
11.18000 140.000
11.22500 135.000
11.27000 132.000
11.31500 129.000
11.36000 137.000
11.40500 133.000
11.45000 127.000
11.49500 127.000
11.54000 129.000
11.58500 128.000
11.63000 138.000
11.67500 131.000
11.72000 144.000
11.76500 124.000
11.81000 124.000
11.85500 157.000
11.90000 137.000
11.94500 147.000
11.99000 153.000
12.03500 173.000
12.08000 181.000
12.12500 159.000
12.17000 128.000
12.21500 136.000
12.26000 129.000
12.30500 132.000
12.35000 135.000
12.39500 163.000
12.44000 193.000
12.48500 270.000
12.53000 423.000
12.57500 730.000
12.62000 1183.000
12.66500 1412.000
12.71000 336.000
12.75500 149.000
12.80000 136.000
12.84500 123.000
12.89000 134.000
12.93500 135.000
12.98000 139.000
13.02500 143.000
13.07000 137.000
13.11500 123.000
13.16000 119.000
13.20500 136.000
13.25000 115.000
13.29500 107.000
13.34000 139.000
13.38500 137.000
13.43000 120.000
13.47500 116.000
13.52000 130.000
13.56500 131.000
13.61000 107.000
13.65500 116.000
13.70000 127.000
13.74500 128.000
13.79000 116.000
13.83500 114.000
13.88000 131.000
13.92500 117.000
13.97000 123.000
14.01500 131.000
14.06000 115.000
14.10500 123.000
14.15000 127.000
14.19500 124.000
14.24000 171.000
14.28500 125.000
14.33000 133.000
14.37500 115.000
14.42000 126.000
14.46500 153.000
14.51000 157.000
14.55500 182.000
14.60000 213.000
14.64500 192.000
14.69000 113.000
14.73500 123.000
14.78000 142.000
14.82500 134.000
14.87000 128.000
14.91500 129.000
14.96000 117.000
15.00500 134.000
15.05000 117.000
15.09500 132.000
15.14000 127.000
15.18500 141.000
15.23000 142.000
15.27500 124.000
15.32000 118.000
15.36500 123.000
15.41000 128.000
15.45500 137.000
15.50000 117.000
15.54500 130.000
15.59000 120.000
15.63500 129.000
15.68000 115.000
15.72500 139.000
15.77000 126.000
15.81500 140.000
15.86000 144.000
15.90500 146.000
15.95000 137.000
15.99500 123.000
16.04000 130.000
16.08500 130.000
16.13000 145.000
16.17500 160.000
16.22000 165.000
16.26500 205.000
16.31000 314.000
16.35500 415.000
16.40000 262.000
16.44500 143.000
16.49000 133.000
16.53500 130.000
16.58000 134.000
16.62500 126.000
16.67000 122.000
16.71500 131.000
16.76000 131.000
16.80500 120.000
16.85000 139.000
16.89500 139.000
16.94000 141.000
16.98500 123.000
17.03000 127.000
17.07500 122.000
17.12000 126.000
17.16500 141.000
17.21000 134.000
17.25500 123.000
17.30000 117.000
17.34500 118.000
17.39000 147.000
17.43500 139.000
17.48000 131.000
17.52500 124.000
17.57000 147.000
17.61500 120.000
17.66000 123.000
17.70500 142.000
17.75000 138.000
17.79500 147.000
17.84000 149.000
17.88500 165.000
17.93000 131.000
17.97500 123.000
18.02000 144.000
18.06500 129.000
18.11000 127.000
18.15500 118.000
18.20000 148.000
18.24500 156.000
18.29000 126.000
18.33500 133.000
18.38000 117.000
18.42500 146.000
18.47000 122.000
18.51500 141.000
18.56000 158.000
18.60500 148.000
18.65000 144.000
18.69500 140.000
18.74000 147.000
18.78500 155.000
18.83000 135.000
18.87500 152.000
18.92000 166.000
18.96500 178.000
19.01000 182.000
19.05500 153.000
19.10000 145.000
19.14500 145.000
19.19000 149.000
19.23500 143.000
19.28000 133.000
19.32500 154.000
19.37000 129.000
19.41500 147.000
19.46000 156.000
19.50500 170.000
19.55000 157.000
19.59500 160.000
19.64000 155.000
19.68500 170.000
19.73000 159.000
19.77500 151.000
19.82000 161.000
19.86500 152.000
19.91000 140.000
19.95500 127.000
20.00000 152.000
20.04500 171.000
20.09000 144.000
20.13500 151.000
20.18000 147.000
20.22500 167.000
20.27000 144.000
20.31500 155.000
20.36000 160.000
20.40500 146.000
20.45000 164.000
20.49500 162.000
20.54000 146.000
20.58500 155.000
20.63000 167.000
20.67500 195.000
20.72000 240.000
20.76500 214.000
20.81000 191.000
20.85500 204.000
20.90000 200.000
20.94500 158.000
20.99000 198.000
21.03500 179.000
21.08000 168.000
21.12500 174.000
21.17000 137.000
21.21500 151.000
21.26000 185.000
21.30500 181.000
21.35000 160.000
21.39500 167.000
21.44000 171.000
21.48500 198.000
21.53000 215.000
21.57500 251.000
21.62000 301.000
21.66500 355.000
21.71000 349.000
21.75500 238.000
21.80000 254.000
21.84500 332.000
21.89000 451.000
21.93500 565.000
21.98000 1018.000
22.02500 906.000
22.07000 319.000
22.11500 177.000
22.16000 181.000
22.20500 157.000
22.25000 168.000
22.29500 166.000
22.34000 159.000
22.38500 160.000
22.43000 161.000
22.47500 171.000
22.52000 170.000
22.56500 170.000
22.61000 153.000
22.65500 157.000
22.70000 166.000
22.74500 154.000
22.79000 147.000
22.83500 164.000
22.88000 154.000
22.92500 181.000
22.97000 156.000
23.01500 191.000
23.06000 206.000
23.10500 255.000
23.15000 298.000
23.19500 381.000
23.24000 268.000
23.28500 181.000
23.33000 148.000
23.37500 169.000
23.42000 162.000
23.46500 180.000
23.51000 166.000
23.55500 178.000
23.60000 162.000
23.64500 151.000
23.69000 186.000
23.73500 152.000
23.78000 160.000
23.82500 158.000
23.87000 179.000
23.91500 192.000
23.96000 175.000
24.00500 215.000
24.05000 255.000
24.09500 308.000
24.14000 377.000
24.18500 453.000
24.23000 640.000
24.27500 927.000
24.32000 1555.000
24.36500 1817.000
24.41000 720.000
24.45500 281.000
24.50000 207.000
24.54500 188.000
24.59000 193.000
24.63500 159.000
24.68000 200.000
24.72500 186.000
24.77000 171.000
24.81500 166.000
24.86000 179.000
24.90500 167.000
24.95000 171.000
24.99500 195.000
25.04000 168.000
25.08500 192.000
25.13000 162.000
25.17500 174.000
25.22000 189.000
25.26500 182.000
25.31000 187.000
25.35500 178.000
25.40000 193.000
25.44500 195.000
25.49000 169.000
25.53500 162.000
25.58000 165.000
25.62500 186.000
25.67000 184.000
25.71500 167.000
25.76000 170.000
25.80500 171.000
25.85000 184.000
25.89500 182.000
25.94000 157.000
25.98500 187.000
26.03000 184.000
26.07500 194.000
26.12000 197.000
26.16500 211.000
26.21000 272.000
26.25500 331.000
26.30000 333.000
26.34500 420.000
26.39000 436.000
26.43500 624.000
26.48000 1032.000
26.52500 1285.000
26.57000 661.000
26.61500 452.000
26.66000 557.000
26.70500 269.000
26.75000 223.000
26.79500 203.000
26.84000 211.000
26.88500 214.000
26.93000 207.000
26.97500 167.000
27.02000 192.000
27.06500 166.000
27.11000 189.000
27.15500 207.000
27.20000 213.000
27.24500 220.000
27.29000 322.000
27.33500 424.000
27.38000 540.000
27.42500 655.000
27.47000 1011.000
27.51500 1615.000
27.56000 1383.000
27.60500 504.000
27.65000 301.000
27.69500 204.000
27.74000 203.000
27.78500 206.000
27.83000 171.000
27.87500 189.000
27.92000 196.000
27.96500 172.000
28.01000 172.000
28.05500 181.000
28.10000 188.000
28.14500 193.000
28.19000 219.000
28.23500 196.000
28.28000 206.000
28.32500 182.000
28.37000 215.000
28.41500 177.000
28.46000 180.000
28.50500 190.000
28.55000 178.000
28.59500 188.000
28.64000 167.000
28.68500 179.000
28.73000 160.000
28.77500 179.000
28.82000 191.000
28.86500 181.000
28.91000 185.000
28.95500 219.000
29.00000 210.000
29.04500 199.000
29.09000 207.000
29.13500 238.000
29.18000 237.000
29.22500 255.000
29.27000 266.000
29.31500 309.000
29.36000 292.000
29.40500 330.000
29.45000 432.000
29.49500 414.000
29.54000 274.000
29.58500 199.000
29.63000 203.000
29.67500 206.000
29.72000 193.000
29.76500 219.000
29.81000 175.000
29.85500 196.000
29.90000 186.000
29.94500 201.000
29.99000 211.000
30.03500 243.000
30.08000 255.000
30.12500 337.000
30.17000 490.000
30.21500 526.000
30.26000 607.000
30.30500 795.000
30.35000 1237.000
30.39500 1752.000
30.44000 1192.000
30.48500 432.000
30.53000 253.000
30.57500 204.000
30.62000 175.000
30.66500 172.000
30.71000 177.000
30.75500 159.000
30.80000 185.000
30.84500 156.000
30.89000 178.000
30.93500 177.000
30.98000 195.000
31.02500 186.000
31.07000 203.000
31.11500 209.000
31.16000 209.000
31.20500 220.000
31.25000 279.000
31.29500 363.000
31.34000 291.000
31.38500 214.000
31.43000 169.000
31.47500 186.000
31.52000 171.000
31.56500 165.000
31.61000 177.000
31.65500 215.000
31.70000 200.000
31.74500 247.000
31.79000 276.000
31.83500 291.000
31.88000 328.000
31.92500 393.000
31.97000 428.000
32.01500 300.000
32.06000 240.000
32.10500 224.000
32.15000 208.000
32.19500 230.000
32.24000 190.000
32.28500 167.000
32.33000 175.000
32.37500 175.000
32.42000 168.000
32.46500 161.000
32.51000 161.000
32.55500 165.000
32.60000 154.000
32.64500 159.000
32.69000 169.000
32.73500 215.000
32.78000 237.000
32.82500 249.000
32.87000 278.000
32.91500 283.000
32.96000 328.000
33.00500 465.000
33.05000 546.000
33.09500 353.000
33.14000 208.000
33.18500 170.000
33.23000 171.000
33.27500 158.000
33.32000 152.000
33.36500 149.000
33.41000 154.000
33.45500 181.000
33.50000 197.000
33.54500 206.000
33.59000 211.000
33.63500 229.000
33.68000 280.000
33.72500 269.000
33.77000 279.000
33.81500 367.000
33.86000 502.000
33.90500 532.000
33.95000 289.000
33.99500 212.000
34.04000 172.000
34.08500 154.000
34.13000 171.000
34.17500 157.000
34.22000 150.000
34.26500 165.000
34.31000 142.000
34.35500 173.000
34.40000 172.000
34.44500 234.000
34.49000 296.000
34.53500 318.000
34.58000 313.000
34.62500 396.000
34.67000 562.000
34.71500 685.000
34.76000 402.000
34.80500 229.000
34.85000 166.000
34.89500 172.000
34.94000 157.000
34.98500 152.000
35.03000 135.000
35.07500 160.000
35.12000 155.000
35.16500 163.000
35.21000 148.000
35.25500 170.000
35.30000 152.000
35.34500 160.000
35.39000 146.000
35.43500 154.000
35.48000 146.000
35.52500 149.000
35.57000 144.000
35.61500 142.000
35.66000 141.000
35.70500 140.000
35.75000 134.000
35.79500 137.000
35.84000 135.000
35.88500 130.000
35.93000 142.000
35.97500 150.000
36.02000 173.000
36.06500 194.000
36.11000 196.000
36.15500 181.000
36.20000 221.000
36.24500 295.000
36.29000 403.000
36.33500 358.000
36.38000 195.000
36.42500 180.000
36.47000 121.000
36.51500 150.000
36.56000 159.000
36.60500 160.000
36.65000 173.000
36.69500 169.000
36.74000 174.000
36.78500 204.000
36.83000 194.000
36.87500 191.000
36.92000 192.000
36.96500 168.000
37.01000 162.000
37.05500 150.000
37.10000 145.000
37.14500 143.000
37.19000 122.000
37.23500 122.000
37.28000 109.000
37.32500 140.000
37.37000 111.000
37.41500 134.000
37.46000 138.000
37.50500 129.000
37.55000 101.000
37.59500 125.000
37.64000 121.000
37.68500 113.000
37.73000 142.000
37.77500 144.000
37.82000 130.000
37.86500 122.000
37.91000 125.000
37.95500 129.000
38.00000 126.000
38.04500 130.000
38.09000 141.000
38.13500 114.000
38.18000 125.000
38.22500 123.000
38.27000 153.000
38.31500 165.000
38.36000 163.000
38.40500 197.000
38.45000 165.000
38.49500 153.000
38.54000 175.000
38.58500 201.000
38.63000 168.000
38.67500 135.000
38.72000 125.000
38.76500 105.000
38.81000 104.000
38.85500 126.000
38.90000 97.000
38.94500 113.000
38.99000 116.000
39.03500 103.000
39.08000 100.000
39.12500 127.000
39.17000 106.000
39.21500 101.000
39.26000 96.000
39.30500 113.000
39.35000 113.000
39.39500 120.000
39.44000 129.000
39.48500 170.000
39.53000 153.000
39.57500 162.000
39.62000 170.000
39.66500 204.000
39.71000 234.000
39.75500 253.000
39.80000 275.000
39.84500 327.000
39.89000 299.000
39.93500 212.000
39.98000 184.000
40.02500 194.000
40.07000 158.000
40.11500 127.000
40.16000 124.000
40.20500 127.000
40.25000 131.000
40.29500 104.000
40.34000 121.000
40.38500 111.000
40.43000 124.000
40.47500 118.000
40.52000 111.000
40.56500 136.000
40.61000 114.000
40.65500 139.000
40.70000 135.000
40.74500 149.000
40.79000 144.000
40.83500 118.000
40.88000 113.000
40.92500 103.000
40.97000 116.000
41.01500 93.000
41.06000 121.000
41.10500 111.000
41.15000 104.000
41.19500 112.000
41.24000 104.000
41.28500 102.000
41.33000 108.000
41.37500 124.000
41.42000 82.000
41.46500 94.000
41.51000 113.000
41.55500 99.000
41.60000 100.000
41.64500 97.000
41.69000 105.000
41.73500 123.000
41.78000 120.000
41.82500 143.000
41.87000 133.000
41.91500 162.000
41.96000 175.000
42.00500 183.000
42.05000 184.000
42.09500 206.000
42.14000 277.000
42.18500 273.000
42.23000 186.000
42.27500 140.000
42.32000 138.000
42.36500 114.000
42.41000 118.000
42.45500 118.000
42.50000 126.000
42.54500 113.000
42.59000 124.000
42.63500 125.000
42.68000 140.000
42.72500 139.000
42.77000 137.000
42.81500 125.000
42.86000 119.000
42.90500 115.000
42.95000 99.000
42.99500 111.000
43.04000 93.000
43.08500 103.000
43.13000 112.000
43.17500 110.000
43.22000 116.000
43.26500 110.000
43.31000 107.000
43.35500 125.000
43.40000 116.000
43.44500 152.000
43.49000 153.000
43.53500 179.000
43.58000 148.000
43.62500 130.000
43.67000 127.000
43.71500 134.000
43.76000 126.000
43.80500 129.000
43.85000 132.000
43.89500 144.000
43.94000 168.000
43.98500 172.000
44.03000 169.000
44.07500 175.000
44.12000 140.000
44.16500 146.000
44.21000 131.000
44.25500 139.000
44.30000 131.000
44.34500 125.000
44.39000 132.000
44.43500 127.000
44.48000 133.000
44.52500 147.000
44.57000 156.000
44.61500 152.000
44.66000 130.000
44.70500 154.000
44.75000 203.000
44.79500 288.000
44.84000 365.000
44.88500 355.000
44.93000 234.000
44.97500 166.000
45.02000 129.000
45.06500 136.000
45.11000 123.000
45.15500 126.000
45.20000 126.000
45.24500 137.000
45.29000 132.000
45.33500 128.000
45.38000 127.000
45.42500 109.000
45.47000 127.000
45.51500 120.000
45.56000 96.000
45.60500 95.000
45.65000 99.000
45.69500 102.000
45.74000 109.000
45.78500 105.000
45.83000 123.000
45.87500 97.000
45.92000 110.000
45.96500 114.000
46.01000 105.000
46.05500 108.000
46.10000 99.000
46.14500 135.000
46.19000 141.000
46.23500 105.000
46.28000 96.000
46.32500 100.000
46.37000 96.000
46.41500 114.000
46.46000 103.000
46.50500 112.000
46.55000 116.000
46.59500 102.000
46.64000 127.000
46.68500 110.000
46.73000 114.000
46.77500 97.000
46.82000 107.000
46.86500 94.000
46.91000 92.000
46.95500 101.000
47.00000 101.000
47.04500 102.000
47.09000 82.000
47.13500 100.000
47.18000 108.000
47.22500 97.000
47.27000 103.000
47.31500 97.000
47.36000 91.000
47.40500 98.000
47.45000 97.000
47.49500 108.000
47.54000 108.000
47.58500 117.000
47.63000 109.000
47.67500 114.000
47.72000 122.000
47.76500 136.000
47.81000 137.000
47.85500 155.000
47.90000 152.000
47.94500 154.000
47.99000 226.000
48.03500 256.000
48.08000 258.000
48.12500 157.000
48.17000 110.000
48.21500 110.000
48.26000 117.000
48.30500 97.000
48.35000 116.000
48.39500 112.000
48.44000 116.000
48.48500 118.000
48.53000 132.000
48.57500 145.000
48.62000 188.000
48.66500 212.000
48.71000 204.000
48.75500 157.000
48.80000 119.000
48.84500 101.000
48.89000 103.000
48.93500 104.000
48.98000 148.000
49.02500 128.000
49.07000 129.000
49.11500 140.000
49.16000 144.000
49.20500 150.000
49.25000 146.000
49.29500 153.000
49.34000 107.000
49.38500 117.000
49.43000 101.000
49.47500 93.000
49.52000 104.000
49.56500 108.000
49.61000 107.000
49.65500 103.000
49.70000 101.000
49.74500 106.000
49.79000 107.000
49.83500 108.000
49.88000 101.000
49.92500 118.000
49.97000 121.000
50.01500 106.000
50.06000 109.000
50.10500 124.000
50.15000 135.000
50.19500 126.000
50.24000 119.000
50.28500 117.000
50.33000 145.000
50.37500 129.000
50.42000 132.000
50.46500 119.000
50.51000 128.000
50.55500 112.000
50.60000 120.000
50.64500 97.000
50.69000 118.000
50.73500 105.000
50.78000 111.000
50.82500 97.000
50.87000 107.000
50.91500 94.000
50.96000 116.000
51.00500 117.000
51.05000 111.000
51.09500 98.000
51.14000 108.000
51.18500 101.000
51.23000 96.000
51.27500 98.000
51.32000 99.000
51.36500 104.000
51.41000 110.000
51.45500 100.000
51.50000 119.000
51.54500 103.000
51.59000 120.000
51.63500 96.000
51.68000 108.000
51.72500 95.000
51.77000 94.000
51.81500 97.000
51.86000 109.000
51.90500 99.000
51.95000 96.000
51.99500 95.000
52.04000 98.000
52.08500 92.000
52.13000 107.000
52.17500 109.000
52.22000 99.000
52.26500 111.000
52.31000 109.000
52.35500 106.000
52.40000 112.000
52.44500 103.000
52.49000 109.000
52.53500 110.000
52.58000 107.000
52.62500 129.000
52.67000 120.000
52.71500 134.000
52.76000 138.000
52.80500 187.000
52.85000 188.000
52.89500 184.000
52.94000 164.000
52.98500 140.000
53.03000 135.000
53.07500 168.000
53.12000 136.000
53.16500 144.000
53.21000 161.000
53.25500 145.000
53.30000 173.000
53.34500 237.000
53.39000 333.000
53.43500 382.000
53.48000 295.000
53.52500 231.000
53.57000 152.000
53.61500 123.000
53.66000 107.000
53.70500 112.000
53.75000 129.000
53.79500 103.000
53.84000 110.000
53.88500 122.000
53.93000 122.000
53.97500 122.000
54.02000 107.000
54.06500 103.000
54.11000 91.000
54.15500 103.000
54.20000 95.000
54.24500 93.000
54.29000 97.000
54.33500 107.000
54.38000 114.000
54.42500 104.000
54.47000 107.000
54.51500 99.000
54.56000 129.000
54.60500 136.000
54.65000 129.000
54.69500 113.000
54.74000 118.000
54.78500 135.000
54.83000 132.000
54.87500 150.000
54.92000 141.000
54.96500 154.000
55.01000 141.000
55.05500 190.000
55.10000 230.000
55.14500 258.000
55.19000 211.000
55.23500 174.000
55.28000 141.000
55.32500 134.000
55.37000 120.000
55.41500 87.000
55.46000 103.000
55.50500 97.000
55.55000 117.000
55.59500 122.000
55.64000 108.000
55.68500 111.000
55.73000 117.000
55.77500 119.000
55.82000 90.000
55.86500 104.000
55.91000 107.000
55.95500 97.000
56.00000 92.000
56.04500 107.000
56.09000 104.000
56.13500 109.000
56.18000 112.000
56.22500 98.000
56.27000 120.000
56.31500 97.000
56.36000 91.000
56.40500 103.000
56.45000 93.000
56.49500 115.000
56.54000 91.000
56.58500 96.000
56.63000 93.000
56.67500 101.000
56.72000 89.000
56.76500 112.000
56.81000 95.000
56.85500 125.000
56.90000 102.000
56.94500 123.000
56.99000 126.000
57.03500 124.000
57.08000 131.000
57.12500 136.000
57.17000 132.000
57.21500 166.000
57.26000 150.000
57.30500 163.000
57.35000 207.000
57.39500 206.000
57.44000 160.000
57.48500 134.000
57.53000 108.000
57.57500 109.000
57.62000 103.000
57.66500 106.000
57.71000 101.000
57.75500 110.000
57.80000 101.000
57.84500 98.000
57.89000 113.000
57.93500 115.000
57.98000 115.000
58.02500 106.000
58.07000 102.000
58.11500 115.000
58.16000 112.000
58.20500 119.000
58.25000 118.000
58.29500 122.000
58.34000 123.000
58.38500 151.000
58.43000 181.000
58.47500 204.000
58.52000 161.000
58.56500 129.000
58.61000 121.000
58.65500 100.000
58.70000 96.000
58.74500 84.000
58.79000 95.000
58.83500 94.000
58.88000 115.000
58.92500 94.000
58.97000 98.000
59.01500 122.000
59.06000 111.000
59.10500 125.000
59.15000 108.000
59.19500 122.000
59.24000 123.000
59.28500 121.000
59.33000 106.000
59.37500 145.000
59.42000 157.000
59.46500 167.000
59.51000 192.000
59.55500 217.000
59.60000 179.000
59.64500 151.000
59.69000 119.000
59.73500 107.000
59.78000 103.000
59.82500 86.000
59.87000 120.000
59.91500 117.000
59.96000 141.000
60.00500 132.000
60.05000 125.000
60.09500 140.000
60.14000 134.000
60.18500 93.000
60.23000 104.000
60.27500 105.000
60.32000 87.000
60.36500 86.000
60.41000 92.000
60.45500 95.000
60.50000 110.000
60.54500 113.000
60.59000 107.000
60.63500 108.000
60.68000 97.000
60.72500 100.000
60.77000 106.000
60.81500 108.000
60.86000 109.000
60.90500 111.000
60.95000 108.000
60.99500 120.000
61.04000 107.000
61.08500 139.000
61.13000 134.000
61.17500 141.000
61.22000 136.000
61.26500 133.000
61.31000 104.000
61.35500 121.000
61.40000 116.000
61.44500 126.000
61.49000 128.000
61.53500 116.000
61.58000 126.000
61.62500 150.000
61.67000 132.000
61.71500 145.000
61.76000 122.000
61.80500 119.000
61.85000 108.000
61.89500 106.000
61.94000 106.000
61.98500 111.000