File: ISoD/xrd_data/HSC073_ranges_combined.xy
2.0 9.0
2.045 6.0
2.09 5.0
2.135 6.0
2.18 6.0
2.225 9.0
2.27 11.0
2.315 9.0
2.36 7.0
2.405 8.0
2.45 6.0
2.495 4.0
2.54 7.0
2.585 7.0
2.63 3.0
2.675 4.0
2.72 7.0
2.765 5.0
2.81 7.0
2.855 7.0
2.9 8.0
2.945 5.0
2.99 8.0
3.035 10.0
3.08 7.0
3.125 8.0
3.17 29.0
3.215 56.0
3.26 118.0
3.305 240.0
3.35 385.0
3.395 402.0
3.44 386.0
3.485 422.0
3.53 439.0
3.575 443.0
3.62 431.0
3.665 455.0
3.71 439.0
3.755 447.0
3.8 450.0
3.845 468.0
3.89 460.0
3.935 460.0
3.98 477.0
4.025 513.0
4.07 496.0
4.115 507.0
4.16 499.0
4.205 502.0
4.25 520.0
4.295 521.0
4.34 551.0
4.385 536.0
4.43 555.0
4.475 546.0
4.52 525.0
4.565 544.0
4.61 558.0
4.655 579.0
4.7 582.0
4.745 581.0
4.79 551.0
4.835 572.0
4.88 606.0
4.925 576.0
4.97 618.0
5.015 636.0
5.06 645.0
5.105 609.0
5.15 645.0
5.195 637.0
5.24 592.0
5.285 605.0
5.33 667.0
5.375 618.0
5.42 642.0
5.465 659.0
5.51 652.0
5.555 661.0
5.6 634.0
5.645 646.0
5.69 665.0
5.735 689.0
5.78 641.0
5.825 686.0
5.87 686.0
5.915 647.0
5.96 672.0
6.005 649.0
6.05 691.0
6.095 699.0
6.14 695.0
6.185 711.0
6.23 744.0
6.275 704.0
6.32 719.0
6.365 738.0
6.41 719.0
6.455 736.0
6.5 726.0
6.545 755.0
6.59 739.0
6.635 759.0
6.68 718.0
6.725 711.0
6.77 747.0
6.815 766.0
6.86 719.0
6.905 766.0
6.95 730.0
6.995 728.0
7.04 792.0
7.085 718.0
7.13 763.0
7.175 770.0
7.22 780.0
7.265 749.0
7.31 755.0
7.355 745.0
7.4 745.0
7.445 767.0
7.49 782.0
7.535 745.0
7.58 747.0
7.625 770.0
7.67 745.0
7.715 767.0
7.76 768.0
7.805 784.0
7.85 798.0
7.895 791.0
7.94 791.0
7.985 769.0
8.03 797.0
8.075 837.0
8.12 770.0
8.165 803.0
8.21 789.0
8.255 804.0
8.3 809.0
8.345 801.0
8.39 835.0
8.435 832.0
8.48 818.0
8.525 796.0
8.57 799.0
8.615 798.0
8.66 808.0
8.705 787.0
8.75 791.0
8.795 788.0
8.84 820.0
8.885 802.0
8.93 815.0
8.975 823.0
9.02 806.0
9.065 795.0
9.11 786.0
9.155 849.0
9.2 810.0
9.245 791.0
9.29 798.0
9.335 850.0
9.38 844.0
9.425 767.0
9.47 780.0
9.515 857.0
9.56 847.0
9.605 806.0
9.65 860.0
9.695 832.0
9.74 859.0
9.785 792.0
9.83 823.0
9.875 802.0
9.92 830.0
9.965 810.0
10.01 829.0
10.055 808.0
10.1 838.0
10.145 799.0
10.19 843.0
10.235 894.0
10.28 828.0
10.325 795.0
10.37 836.0
10.415 840.0
10.46 852.0
10.505 880.0
10.55 824.0
10.595 825.0
10.64 835.0
10.685 803.0
10.73 837.0
10.775 878.0
10.82 836.0
10.865 860.0
10.91 850.0
10.955 895.0
11.0 889.0
11.045 808.0
11.09 876.0
11.135 881.0
11.18 925.0
11.225 876.0
11.27 836.0
11.315 885.0
11.36 907.0
11.405 881.0
11.45 877.0
11.495 866.0
11.54 854.0
11.585 898.0
11.63 898.0
11.675 864.0
11.72 849.0
11.765 846.0
11.81 920.0
11.855 873.0
11.9 888.0
11.945 904.0
11.99 881.0
12.035 878.0
12.08 904.0
12.125 852.0
12.17 860.0
12.215 860.0
12.26 925.0
12.305 881.0
12.35 892.0
12.395 902.0
12.44 853.0
12.485 931.0
12.53 887.0
12.575 895.0
12.62 908.0
12.665 908.0
12.71 868.0
12.755 903.0
12.8 929.0
12.845 893.0
12.89 881.0
12.935 875.0
12.98 870.0
13.025 937.0
13.07 936.0
13.115 901.0
13.16 937.0
13.205 907.0
13.25 906.0
13.295 916.0
13.34 932.0
13.385 938.0
13.43 975.0
13.475 926.0
13.52 902.0
13.565 910.0
13.61 970.0
13.655 904.0
13.7 959.0
13.745 909.0
13.79 923.0
13.835 941.0
13.88 892.0
13.925 909.0
13.97 925.0
14.015 955.0
14.06 972.0
14.105 973.0
14.15 923.0
14.195 955.0
14.24 910.0
14.285 957.0
14.33 970.0
14.375 935.0
14.42 946.0
14.465 916.0
14.51 962.0
14.555 957.0
14.6 939.0
14.645 925.0
14.69 954.0
14.735 934.0
14.78 956.0
14.825 951.0
14.87 921.0
14.915 954.0
14.96 931.0
15.005 980.0
15.05 943.0
15.095 947.0
15.14 932.0
15.185 969.0
15.23 966.0
15.275 974.0
15.32 967.0
15.365 960.0
15.41 993.0
15.455 943.0
15.5 957.0
15.545 908.0
15.59 960.0
15.635 976.0
15.68 964.0
15.725 971.0
15.77 897.0
15.815 970.0
15.86 920.0
15.905 957.0
15.95 984.0
15.995 967.0
16.04 1032.0
16.085 953.0
16.13 905.0
16.175 970.0
16.22 979.0
16.265 1001.0
16.31 967.0
16.355 982.0
16.4 1003.0
16.445 940.0
16.49 1005.0
16.535 968.0
16.58 912.0
16.625 961.0
16.67 979.0
16.715 990.0
16.76 1012.0
16.805 987.0
16.85 1023.0
16.895 997.0
16.94 978.0
16.985 1017.0
17.03 1009.0
17.075 972.0
17.12 980.0
17.165 935.0
17.21 1006.0
17.255 1001.0
17.3 955.0
17.345 1016.0
17.39 941.0
17.435 1004.0
17.48 988.0
17.525 1049.0
17.57 999.0
17.615 973.0
17.66 1015.0
17.705 1023.0
17.75 1032.0
17.795 1015.0
17.84 1041.0
17.885 974.0
17.93 974.0
17.975 999.0
18.02 998.0
18.065 1032.0
18.11 1022.0
18.155 1039.0
18.2 960.0
18.245 1036.0
18.29 1008.0
18.335 1017.0
18.38 1015.0
18.425 1011.0
18.47 1050.0
18.515 1064.0
18.56 1038.0
18.605 1016.0
18.65 1051.0
18.695 982.0
18.74 1038.0
18.785 1047.0
18.83 1062.0
18.875 1046.0
18.92 1014.0
18.965 1006.0
19.01 1058.0
19.055 1056.0
19.1 1057.0
19.145 982.0
19.19 1053.0
19.235 1090.0
19.28 1012.0
19.325 1054.0
19.37 1023.0
19.415 1086.0
19.46 1067.0
19.505 1017.0
19.55 1015.0
19.595 1055.0
19.64 1017.0
19.685 1049.0
19.73 1072.0
19.775 1012.0
19.82 990.0
19.865 1005.0
19.91 1059.0
19.955 1035.0
20.0 1036.0
20.045 1029.0
20.09 1059.0
20.135 1130.0
20.18 1048.0
20.225 1066.0
20.27 1086.0
20.315 1046.0
20.36 1050.0
20.405 1100.0
20.45 1009.0
20.495 1036.0
20.54 1041.0
20.585 1090.0
20.63 1077.0
20.675 1061.0
20.72 1030.0
20.765 1081.0
20.81 1054.0
20.855 1044.0
20.9 1049.0
20.945 1077.0
20.99 1145.0
21.035 1064.0
21.08 1058.0
21.125 1101.0
21.17 1062.0
21.215 1024.0
21.26 1074.0
21.305 1058.0
21.35 1104.0
21.395 1082.0
21.44 1065.0
21.485 1090.0
21.53 1003.0
21.575 1021.0
21.62 1066.0
21.665 1051.0
21.71 1101.0
21.755 1069.0
21.8 1056.0
21.845 1067.0
21.89 1085.0
21.935 1039.0
21.98 1039.0
22.025 1035.0
22.07 1093.0
22.115 1045.0
22.16 1072.0
22.205 1065.0
22.25 1069.0
22.295 1036.0
22.34 1058.0
22.385 1101.0
22.43 1076.0
22.475 1025.0
22.52 1084.0
22.565 1051.0
22.61 1080.0
22.655 1110.0
22.7 1026.0
22.745 1070.0
22.79 1064.0
22.835 1028.0
22.88 1057.0
22.925 1082.0
22.97 1068.0
23.015 1101.0
23.06 1024.0
23.105 1028.0
23.15 1049.0
23.195 1047.0
23.24 1021.0
23.285 984.0
23.33 1019.0
23.375 1014.0
23.42 1050.0
23.465 1061.0
23.51 1105.0
23.555 1063.0
23.6 1063.0
23.645 1066.0
23.69 1058.0
23.735 1027.0
23.78 1048.0
23.825 1021.0
23.87 1015.0
23.915 1024.0
23.96 1027.0
24.005 1035.0
24.05 1018.0
24.095 1067.0
24.14 959.0
24.185 992.0
24.23 1033.0
24.275 1047.0
24.32 1020.0
24.365 992.0
24.41 1036.0
24.455 1012.0
24.5 1000.0
24.545 1013.0
24.59 1023.0
24.635 994.0
24.68 1005.0
24.725 1048.0
24.77 1012.0
24.815 954.0
24.86 990.0
24.905 995.0
24.95 999.0
24.995 997.0
25.04 944.0
25.085 990.0
25.13 948.0
25.175 989.0
25.22 958.0
25.265 937.0
25.31 1016.0
25.355 1031.0
25.4 990.0
25.445 975.0
25.49 967.0
25.535 966.0
25.58 955.0
25.625 942.0
25.67 975.0
25.715 983.0
25.76 967.0
25.805 920.0
25.85 971.0
25.895 907.0
25.94 1009.0
25.985 913.0
26.03 944.0
26.075 952.0
26.12 936.0
26.165 954.0
26.21 909.0
26.255 907.0
26.3 928.0
26.345 951.0
26.39 954.0
26.435 902.0
26.48 944.0
26.525 931.0
26.57 907.0
26.615 954.0
26.66 890.0
26.705 880.0
26.75 932.0
26.795 906.0
26.84 917.0
26.885 915.0
26.93 915.0
26.975 908.0
27.02 866.0
27.065 830.0
27.11 831.0
27.155 886.0
27.2 899.0
27.245 897.0
27.29 898.0
27.335 844.0
27.38 835.0
27.425 861.0
27.47 844.0
27.515 868.0
27.56 846.0
27.605 846.0
27.65 864.0
27.695 834.0
27.74 832.0
27.785 864.0
27.83 780.0
27.875 839.0
27.92 885.0
27.965 852.0
28.01 854.0
28.055 857.0
28.1 807.0
28.145 790.0
28.19 808.0
28.235 817.0
28.28 822.0
28.325 844.0
28.37 814.0
28.415 844.0
28.46 793.0
28.505 811.0
28.55 804.0
28.595 814.0
28.64 773.0
28.685 836.0
28.73 824.0
28.775 808.0
28.82 771.0
28.865 774.0
28.91 797.0
28.955 771.0
29.0 792.0
29.045 806.0
29.09 802.0
29.135 816.0
29.18 802.0
29.225 788.0
29.27 757.0
29.315 771.0
29.36 787.0
29.405 809.0
29.45 745.0
29.495 827.0
29.54 798.0
29.585 777.0
29.63 749.0
29.675 823.0
29.72 809.0
29.765 782.0
29.81 746.0
29.855 767.0
29.9 725.0
29.945 699.0
29.99 733.0
30.035 732.0
30.08 707.0
30.125 756.0
30.17 768.0
30.215 722.0
30.26 754.0
30.305 769.0
30.35 735.0
30.395 747.0
30.44 713.0
30.485 701.0
30.53 766.0
30.575 725.0
30.62 708.0
30.665 677.0
30.71 758.0
30.755 725.0
30.8 677.0
30.845 694.0
30.89 691.0
30.935 709.0
30.98 712.0
31.025 702.0
31.07 707.0
31.115 701.0
31.16 706.0
31.205 712.0
31.25 680.0
31.295 681.0
31.34 690.0
31.385 688.0
31.43 695.0
31.475 715.0
31.52 648.0
31.565 660.0
31.61 696.0
31.655 663.0
31.7 655.0
31.745 670.0
31.79 640.0
31.835 686.0
31.88 638.0
31.925 633.0
31.97 666.0
32.015 653.0
32.06 636.0
32.105 672.0
32.15 685.0
32.195 634.0
32.24 654.0
32.285 656.0
32.33 599.0
32.375 633.0
32.42 656.0
32.465 633.0
32.51 665.0
32.555 639.0
32.6 628.0
32.645 628.0
32.69 617.0
32.735 609.0
32.78 606.0
32.825 609.0
32.87 590.0
32.915 602.0
32.96 609.0
33.005 622.0
33.05 595.0
33.095 602.0
33.14 616.0
33.185 609.0
33.23 602.0
33.275 608.0
33.32 622.0
33.365 597.0
33.41 600.0
33.455 593.0
33.5 567.0
33.545 569.0
33.59 565.0
33.635 546.0
33.68 571.0
33.725 591.0
33.77 520.0
33.815 577.0
33.86 550.0
33.905 561.0
33.95 542.0
33.995 567.0
34.04 579.0
34.085 575.0
34.13 539.0
34.175 544.0
34.22 539.0
34.265 538.0
34.31 533.0
34.355 557.0
34.4 535.0
34.445 524.0
34.49 515.0
34.535 535.0
34.58 557.0
34.625 529.0
34.67 550.0
34.715 513.0
34.76 530.0
34.805 496.0
34.85 539.0
34.895 490.0
34.94 530.0
34.985 509.0
35.03 538.0
35.075 503.0
35.12 493.0
35.165 502.0
35.21 481.0
35.255 495.0
35.3 509.0
35.345 458.0
35.39 508.0
35.435 499.0
35.48 459.0
35.525 501.0
35.57 469.0
35.615 482.0
35.66 465.0
35.705 509.0
35.75 484.0
35.795 471.0
35.84 487.0
35.885 451.0
35.93 478.0
35.975 488.0
36.02 483.0
36.065 475.0
36.11 474.0
36.155 469.0
36.2 449.0
36.245 451.0
36.29 480.0
36.335 447.0
36.38 443.0
36.425 460.0
36.47 457.0
36.515 464.0
36.56 471.0
36.605 471.0
36.65 463.0
36.695 452.0
36.74 457.0
36.785 434.0
36.83 449.0
36.875 453.0
36.92 447.0
36.965 427.0
37.01 456.0
37.055 451.0
37.1 450.0
37.145 408.0
37.19 444.0
37.235 430.0
37.28 409.0
37.325 451.0
37.37 394.0
37.415 417.0
37.46 430.0
37.505 426.0
37.55 409.0
37.595 422.0
37.64 396.0
37.685 438.0
37.73 425.0
37.775 418.0
37.82 403.0
37.865 411.0
37.91 390.0
37.955 432.0
38.0 428.0
38.045 430.0
38.09 417.0
38.135 407.0
38.18 409.0
38.225 423.0
38.27 390.0
38.315 396.0
38.36 409.0
38.405 418.0
38.45 420.0
38.495 385.0
38.54 403.0
38.585 427.0
38.63 396.0
38.675 405.0
38.72 403.0
38.765 417.0
38.81 403.0
38.855 441.0
38.9 408.0
38.945 405.0
38.99 400.0
39.035 398.0
39.08 374.0
39.125 381.0
39.17 415.0
39.215 398.0
39.26 388.0
39.305 417.0
39.35 386.0
39.395 406.0
39.44 391.0
39.485 406.0
39.53 387.0
39.575 372.0
39.62 396.0
39.665 382.0
39.71 411.0
39.755 372.0
39.8 364.0
39.845 400.0
39.89 371.0
39.935 378.0
39.98 383.0
40.025 396.0
40.07 378.0
40.115 390.0
40.16 363.0
40.205 395.0
40.25 385.0
40.295 361.0
40.34 391.0
40.385 392.0
40.43 392.0
40.475 390.0
40.52 396.0
40.565 394.0
40.61 412.0
40.655 362.0
40.7 366.0
40.745 354.0
40.79 400.0
40.835 371.0
40.88 349.0
40.925 373.0
40.97 396.0
41.015 396.0
41.06 375.0
41.105 339.0
41.15 395.0
41.195 409.0
41.24 377.0
41.285 351.0
41.33 362.0
41.375 354.0
41.42 362.0
41.465 377.0
41.51 364.0
41.555 364.0
41.6 368.0
41.645 383.0
41.69 390.0
41.735 404.0
41.78 359.0
41.825 398.0
41.87 360.0
41.915 370.0
41.96 357.0
42.005 370.0
42.05 341.0
42.095 374.0
42.14 377.0
42.185 354.0
42.23 381.0
42.275 352.0
42.32 375.0
42.365 327.0
42.41 339.0
42.455 341.0
42.5 359.0
42.545 326.0
42.59 332.0
42.635 341.0
42.68 378.0
42.725 335.0
42.77 354.0
42.815 381.0
42.86 332.0
42.905 355.0
42.95 346.0
42.995 400.0
43.04 369.0
43.085 351.0
43.13 357.0
43.175 320.0
43.22 348.0
43.265 350.0
43.31 361.0
43.355 360.0
43.4 364.0
43.445 382.0
43.49 340.0
43.535 360.0
43.58 369.0
43.625 361.0
43.67 333.0
43.715 357.0
43.76 344.0
43.805 315.0
43.85 370.0
43.895 376.0
43.94 353.0
43.985 365.0
44.03 366.0
44.075 363.0
44.12 362.0
44.165 344.0
44.21 352.0
44.255 360.0
44.3 339.0
44.345 361.0
44.39 357.0
44.435 331.0
44.48 310.0
44.525 339.0
44.57 372.0
44.615 326.0
44.66 383.0
44.705 351.0
44.75 344.0
44.795 338.0
44.84 323.0
44.885 337.0
44.93 332.0
44.975 339.0
45.02 340.0
45.065 345.0
45.11 335.0
45.155 373.0
45.2 330.0
45.245 314.0
45.29 339.0
45.335 303.0
45.38 328.0
45.425 333.0
45.47 345.0
45.515 336.0
45.56 333.0
45.605 346.0
45.65 337.0
45.695 334.0
45.74 338.0
45.785 346.0
45.83 317.0
45.875 335.0
45.92 320.0
45.965 341.0
46.01 358.0
46.055 322.0
46.1 327.0
46.145 329.0
46.19 347.0
46.235 332.0
46.28 357.0
46.325 330.0
46.37 320.0
46.415 313.0
46.46 317.0
46.505 353.0
46.55 323.0
46.595 327.0
46.64 326.0
46.685 320.0
46.73 324.0
46.775 330.0
46.82 291.0
46.865 328.0
46.91 318.0
46.955 318.0
47.0 335.0
47.045 311.0
47.09 326.0
47.135 328.0
47.18 331.0
47.225 343.0
47.27 317.0
47.315 331.0
47.36 309.0
47.405 327.0
47.45 303.0
47.495 318.0
47.54 329.0
47.585 312.0
47.63 315.0
47.675 333.0
47.72 317.0
47.765 311.0
47.81 348.0
47.855 320.0
47.9 288.0
47.945 294.0
47.99 309.0
48.035 299.0
48.08 318.0
48.125 307.0
48.17 319.0
48.215 329.0
48.26 305.0
48.305 315.0
48.35 303.0
48.395 295.0
48.44 297.0
48.485 324.0
48.53 322.0
48.575 310.0
48.62 298.0
48.665 291.0
48.71 298.0
48.755 304.0
48.8 305.0
48.845 284.0
48.89 302.0
48.935 323.0
48.98 298.0
49.025 304.0
49.07 291.0
49.115 265.0
49.16 276.0
49.205 296.0
49.25 314.0
49.295 302.0
49.34 294.0
49.385 301.0
49.43 304.0
49.475 312.0
49.52 298.0
49.565 287.0
49.61 292.0
49.655 274.0
49.7 268.0
49.745 295.0
49.79 291.0
49.835 300.0
49.88 308.0
49.925 293.0
49.97 300.0
50.015 297.0
50.06 293.0
50.105 271.0
50.15 278.0
50.195 303.0
50.24 310.0
50.285 266.0
50.33 284.0
50.375 260.0
50.42 277.0
50.465 295.0
50.51 275.0
50.555 314.0
50.6 292.0
50.645 279.0
50.69 291.0
50.735 267.0
50.78 299.0
50.825 294.0
50.87 267.0
50.915 281.0
50.96 294.0
51.005 283.0
51.05 266.0
51.095 266.0
51.14 264.0
51.185 280.0
51.23 286.0
51.275 298.0
51.32 279.0
51.365 288.0
51.41 256.0
51.455 255.0
51.5 278.0
51.545 249.0
51.59 266.0
51.635 300.0
51.68 286.0
51.725 294.0
51.77 296.0
51.815 266.0
51.86 263.0
51.905 279.0
51.95 280.0
51.995 294.0
52.04 256.0
52.085 279.0
52.13 263.0
52.175 265.0
52.22 281.0
52.265 251.0
52.31 273.0
52.355 263.0
52.4 271.0
52.445 280.0
52.49 276.0
52.535 297.0
52.58 285.0
52.625 283.0
52.67 279.0
52.715 276.0
52.76 258.0
52.805 262.0
52.85 249.0
52.895 249.0
52.94 263.0
52.985 264.0
53.03 301.0
53.075 257.0
53.12 236.0
53.165 264.0
53.21 295.0
53.255 255.0
53.3 266.0
53.345 255.0
53.39 259.0
53.435 260.0
53.48 275.0
53.525 256.0
53.57 283.0
53.615 273.0
53.66 280.0
53.705 247.0
53.75 273.0
53.795 276.0
53.84 277.0
53.885 249.0
53.93 272.0
53.975 274.0
54.02 269.0
54.065 262.0
54.11 280.0
54.155 283.0
54.2 270.0
54.245 244.0
54.29 257.0
54.335 247.0
54.38 269.0
54.425 256.0
54.47 257.0
54.515 242.0
54.56 261.0
54.605 268.0
54.65 261.0
54.695 249.0
54.74 260.0
54.785 272.0
54.83 245.0
54.875 266.0
54.92 243.0
54.965 274.0
55.01 246.0
55.055 234.0
55.1 269.0
55.145 257.0
55.19 235.0
55.235 252.0
55.28 257.0
55.325 280.0
55.37 240.0
55.415 263.0
55.46 246.0
55.505 271.0
55.55 275.0
55.595 273.0
55.64 243.0
55.685 242.0
55.73 275.0
55.775 262.0
55.82 240.0
55.865 238.0
55.91 242.0
55.955 267.0
56.0 251.0
56.045 261.0
56.09 256.0
56.135 274.0
56.18 245.0
56.225 266.0
56.27 241.0
56.315 245.0
56.36 258.0
56.405 275.0
56.45 227.0
56.495 286.0
56.54 252.0
56.585 242.0
56.63 275.0
56.675 242.0
56.72 257.0
56.765 261.0
56.81 272.0
56.855 251.0
56.9 246.0
56.945 253.0
56.99 249.0
57.035 252.0
57.08 255.0
57.125 243.0
57.17 256.0
57.215 248.0
57.26 265.0
57.305 241.0
57.35 240.0
57.395 267.0
57.44 257.0
57.485 266.0
57.53 269.0
57.575 256.0
57.62 252.0
57.665 269.0
57.71 253.0
57.755 250.0
57.8 256.0
57.845 250.0
57.89 263.0
57.935 277.0
57.98 243.0
58.025 257.0
58.07 260.0
58.115 251.0
58.16 261.0
58.205 231.0
58.25 241.0
58.295 245.0
58.34 258.0
58.385 254.0
58.43 231.0
58.475 255.0
58.52 259.0
58.565 241.0
58.61 258.0
58.655 230.0
58.7 245.0
58.745 224.0
58.79 246.0
58.835 269.0
58.88 229.0
58.925 252.0
58.97 256.0
59.015 253.0
59.06 231.0
59.105 241.0
59.15 243.0
59.195 227.0
59.24 251.0
59.285 239.0
59.33 220.0
59.375 249.0
59.42 258.0
59.465 243.0
59.51 246.0
59.555 228.0
59.6 222.0
59.645 238.0
59.69 245.0
59.735 246.0
59.78 272.0
59.825 233.0
59.87 265.0
59.915 219.0
59.96 258.0
60.005 249.0
60.05 245.0
60.095 232.0
60.14 222.0
60.185 244.0
60.23 258.0
60.275 240.0
60.32 231.0
60.365 230.0
60.41 250.0
60.455 254.0
60.5 250.0
60.545 234.0
60.59 221.0
60.635 231.0
60.68 226.0
60.725 263.0
60.77 229.0
60.815 269.0
60.86 236.0
60.905 243.0
60.95 238.0
60.995 239.0
61.04 227.0
61.085 240.0
61.13 277.0
61.175 195.0
61.22 227.0
61.265 223.0
61.31 261.0
61.355 237.0
61.4 232.0
61.445 248.0
61.49 203.0
61.535 245.0
61.58 248.0
61.625 245.0
61.67 240.0
61.715 217.0
61.76 230.0
61.805 254.0
61.85 229.0
61.895 229.0
61.94 233.0
61.985 224.0