File: ISoD/xrd_data/HSC075_2.xy
2.00000 6.000
2.04500 2.000
2.09000 4.000
2.13500 6.000
2.18000 8.000
2.22500 3.000
2.27000 5.000
2.31500 3.000
2.36000 2.000
2.40500 4.000
2.45000 3.000
2.49500 4.000
2.54000 8.000
2.58500 2.000
2.63000 5.000
2.67500 6.000
2.72000 4.000
2.76500 4.000
2.81000 1.000
2.85500 8.000
2.90000 5.000
2.94500 4.000
2.99000 5.000
3.03500 3.000
3.08000 2.000
3.12500 5.000
3.17000 13.000
3.21500 31.000
3.26000 127.000
3.30500 296.000
3.35000 384.000
3.39500 410.000
3.44000 412.000
3.48500 424.000
3.53000 366.000
3.57500 377.000
3.62000 381.000
3.66500 389.000
3.71000 379.000
3.75500 347.000
3.80000 361.000
3.84500 355.000
3.89000 351.000
3.93500 350.000
3.98000 347.000
4.02500 319.000
4.07000 318.000
4.11500 338.000
4.16000 320.000
4.20500 320.000
4.25000 327.000
4.29500 287.000
4.34000 340.000
4.38500 309.000
4.43000 298.000
4.47500 320.000
4.52000 339.000
4.56500 306.000
4.61000 302.000
4.65500 309.000
4.70000 338.000
4.74500 320.000
4.79000 316.000
4.83500 314.000
4.88000 309.000
4.92500 314.000
4.97000 296.000
5.01500 316.000
5.06000 296.000
5.10500 316.000
5.15000 326.000
5.19500 333.000
5.24000 288.000
5.28500 315.000
5.33000 294.000
5.37500 314.000
5.42000 309.000
5.46500 316.000
5.51000 326.000
5.55500 369.000
5.60000 380.000
5.64500 362.000
5.69000 430.000
5.73500 419.000
5.78000 448.000
5.82500 464.000
5.87000 541.000
5.91500 627.000
5.96000 688.000
6.00500 743.000
6.05000 867.000
6.09500 1002.000
6.14000 1151.000
6.18500 1234.000
6.23000 1405.000
6.27500 1062.000
6.32000 798.000
6.36500 675.000
6.41000 580.000
6.45500 498.000
6.50000 432.000
6.54500 370.000
6.59000 372.000
6.63500 340.000
6.68000 361.000
6.72500 329.000
6.77000 319.000
6.81500 311.000
6.86000 303.000
6.90500 286.000
6.95000 295.000
6.99500 301.000
7.04000 325.000
7.08500 322.000
7.13000 300.000
7.17500 301.000
7.22000 324.000
7.26500 313.000
7.31000 330.000
7.35500 308.000
7.40000 291.000
7.44500 324.000
7.49000 292.000
7.53500 337.000
7.58000 317.000
7.62500 318.000
7.67000 335.000
7.71500 323.000
7.76000 325.000
7.80500 322.000
7.85000 332.000
7.89500 327.000
7.94000 325.000
7.98500 339.000
8.03000 330.000
8.07500 318.000
8.12000 330.000
8.16500 382.000
8.21000 379.000
8.25500 375.000
8.30000 391.000
8.34500 370.000
8.39000 420.000
8.43500 452.000
8.48000 468.000
8.52500 512.000
8.57000 495.000
8.61500 491.000
8.66000 530.000
8.70500 549.000
8.75000 565.000
8.79500 513.000
8.84000 485.000
8.88500 469.000
8.93000 451.000
8.97500 435.000
9.02000 391.000
9.06500 373.000
9.11000 396.000
9.15500 381.000
9.20000 348.000
9.24500 364.000
9.29000 384.000
9.33500 368.000
9.38000 378.000
9.42500 396.000
9.47000 347.000
9.51500 382.000
9.56000 408.000
9.60500 409.000
9.65000 444.000
9.69500 455.000
9.74000 475.000
9.78500 523.000
9.83000 561.000
9.87500 581.000
9.92000 642.000
9.96500 648.000
10.01000 749.000
10.05500 805.000
10.10000 821.000
10.14500 779.000
10.19000 878.000
10.23500 928.000
10.28000 953.000
10.32500 1048.000
10.37000 1008.000
10.41500 1271.000
10.46000 1426.000
10.50500 804.000
10.55000 868.000
10.59500 936.000
10.64000 808.000
10.68500 618.000
10.73000 609.000
10.77500 574.000
10.82000 632.000
10.86500 704.000
10.91000 800.000
10.95500 1042.000
11.00000 1236.000
11.04500 1040.000
11.09000 659.000
11.13500 504.000
11.18000 438.000
11.22500 438.000
11.27000 377.000
11.31500 374.000
11.36000 370.000
11.40500 328.000
11.45000 360.000
11.49500 346.000
11.54000 326.000
11.58500 350.000
11.63000 313.000
11.67500 348.000
11.72000 324.000
11.76500 341.000
11.81000 321.000
11.85500 363.000
11.90000 332.000
11.94500 356.000
11.99000 353.000
12.03500 378.000
12.08000 376.000
12.12500 360.000
12.17000 339.000
12.21500 376.000
12.26000 412.000
12.30500 408.000
12.35000 381.000
12.39500 395.000
12.44000 381.000
12.48500 423.000
12.53000 478.000
12.57500 555.000
12.62000 375.000
12.66500 358.000
12.71000 398.000
12.75500 353.000
12.80000 327.000
12.84500 346.000
12.89000 349.000
12.93500 336.000
12.98000 349.000
13.02500 357.000
13.07000 331.000
13.11500 337.000
13.16000 332.000
13.20500 327.000
13.25000 333.000
13.29500 337.000
13.34000 354.000
13.38500 311.000
13.43000 334.000
13.47500 339.000
13.52000 323.000
13.56500 337.000
13.61000 349.000
13.65500 341.000
13.70000 346.000
13.74500 338.000
13.79000 351.000
13.83500 346.000
13.88000 334.000
13.92500 347.000
13.97000 346.000
14.01500 337.000
14.06000 337.000
14.10500 334.000
14.15000 355.000
14.19500 338.000
14.24000 351.000
14.28500 361.000
14.33000 321.000
14.37500 329.000
14.42000 336.000
14.46500 345.000
14.51000 347.000
14.55500 321.000
14.60000 336.000
14.64500 352.000
14.69000 352.000
14.73500 336.000
14.78000 329.000
14.82500 343.000
14.87000 316.000
14.91500 360.000
14.96000 368.000
15.00500 411.000
15.05000 445.000
15.09500 329.000
15.14000 358.000
15.18500 330.000
15.23000 322.000
15.27500 350.000
15.32000 373.000
15.36500 314.000
15.41000 339.000
15.45500 354.000
15.50000 328.000
15.54500 330.000
15.59000 346.000
15.63500 362.000
15.68000 331.000
15.72500 320.000
15.77000 329.000
15.81500 338.000
15.86000 367.000
15.90500 366.000
15.95000 346.000
15.99500 342.000
16.04000 354.000
16.08500 354.000
16.13000 352.000
16.17500 334.000
16.22000 387.000
16.26500 347.000
16.31000 352.000
16.35500 356.000
16.40000 368.000
16.44500 355.000
16.49000 367.000
16.53500 375.000
16.58000 343.000
16.62500 377.000
16.67000 392.000
16.71500 364.000
16.76000 353.000
16.80500 369.000
16.85000 340.000
16.89500 359.000
16.94000 372.000
16.98500 384.000
17.03000 348.000
17.07500 381.000
17.12000 382.000
17.16500 401.000
17.21000 435.000
17.25500 416.000
17.30000 402.000
17.34500 423.000
17.39000 433.000
17.43500 517.000
17.48000 534.000
17.52500 553.000
17.57000 560.000
17.61500 508.000
17.66000 499.000
17.70500 467.000
17.75000 478.000
17.79500 474.000
17.84000 434.000
17.88500 473.000
17.93000 475.000
17.97500 478.000
18.02000 437.000
18.06500 468.000
18.11000 417.000
18.15500 424.000
18.20000 456.000
18.24500 453.000
18.29000 512.000
18.33500 486.000
18.38000 538.000
18.42500 545.000
18.47000 577.000
18.51500 606.000
18.56000 667.000
18.60500 710.000
18.65000 771.000
18.69500 892.000
18.74000 1078.000
18.78500 945.000
18.83000 834.000
18.87500 817.000
18.92000 779.000
18.96500 803.000
19.01000 791.000
19.05500 697.000
19.10000 726.000
19.14500 661.000
19.19000 704.000
19.23500 925.000
19.28000 1006.000
19.32500 548.000
19.37000 500.000
19.41500 497.000
19.46000 492.000
19.50500 455.000
19.55000 432.000
19.59500 437.000
19.64000 382.000
19.68500 382.000
19.73000 409.000
19.77500 400.000
19.82000 390.000
19.86500 383.000
19.91000 359.000
19.95500 355.000
20.00000 379.000
20.04500 382.000
20.09000 385.000
20.13500 417.000
20.18000 397.000
20.22500 401.000
20.27000 398.000
20.31500 355.000
20.36000 395.000
20.40500 362.000
20.45000 364.000
20.49500 389.000
20.54000 369.000
20.58500 355.000
20.63000 402.000
20.67500 354.000
20.72000 367.000
20.76500 391.000
20.81000 382.000
20.85500 400.000
20.90000 397.000
20.94500 413.000
20.99000 481.000
21.03500 401.000
21.08000 471.000
21.12500 444.000
21.17000 417.000
21.21500 421.000
21.26000 393.000
21.30500 364.000
21.35000 389.000
21.39500 386.000
21.44000 348.000
21.48500 390.000
21.53000 372.000
21.57500 353.000
21.62000 370.000
21.66500 349.000
21.71000 376.000
21.75500 361.000
21.80000 373.000
21.84500 361.000
21.89000 375.000
21.93500 361.000
21.98000 358.000
22.02500 372.000
22.07000 363.000
22.11500 357.000
22.16000 373.000
22.20500 358.000
22.25000 369.000
22.29500 335.000
22.34000 364.000
22.38500 338.000
22.43000 363.000
22.47500 351.000
22.52000 393.000
22.56500 350.000
22.61000 415.000
22.65500 399.000
22.70000 379.000
22.74500 415.000
22.79000 415.000
22.83500 383.000
22.88000 377.000
22.92500 369.000
22.97000 370.000
23.01500 375.000
23.06000 366.000
23.10500 373.000
23.15000 382.000
23.19500 390.000
23.24000 399.000
23.28500 386.000
23.33000 368.000
23.37500 387.000
23.42000 388.000
23.46500 396.000
23.51000 417.000
23.55500 368.000
23.60000 390.000
23.64500 376.000
23.69000 372.000
23.73500 379.000
23.78000 393.000
23.82500 389.000
23.87000 380.000
23.91500 375.000
23.96000 378.000
24.00500 385.000
24.05000 382.000
24.09500 405.000
24.14000 384.000
24.18500 423.000
24.23000 384.000
24.27500 407.000
24.32000 479.000
24.36500 592.000
24.41000 541.000
24.45500 587.000
24.50000 872.000
24.54500 973.000
24.59000 578.000
24.63500 529.000
24.68000 528.000
24.72500 505.000
24.77000 564.000
24.81500 552.000
24.86000 621.000
24.90500 654.000
24.95000 679.000
24.99500 784.000
25.04000 795.000
25.08500 964.000
25.13000 888.000
25.17500 879.000
25.22000 900.000
25.26500 874.000
25.31000 843.000
25.35500 878.000
25.40000 980.000
25.44500 985.000
25.49000 1075.000
25.53500 1128.000
25.58000 1146.000
25.62500 1093.000
25.67000 1091.000
25.71500 1048.000
25.76000 1036.000
25.80500 1241.000
25.85000 1043.000
25.89500 933.000
25.94000 848.000
25.98500 823.000
26.03000 847.000
26.07500 876.000
26.12000 945.000
26.16500 783.000
26.21000 762.000
26.25500 796.000
26.30000 752.000
26.34500 764.000
26.39000 731.000
26.43500 766.000
26.48000 922.000
26.52500 989.000
26.57000 1387.000
26.61500 1765.000
26.66000 943.000
26.70500 737.000
26.75000 690.000
26.79500 710.000
26.84000 668.000
26.88500 679.000
26.93000 660.000
26.97500 653.000
27.02000 671.000
27.06500 701.000
27.11000 713.000
27.15500 695.000
27.20000 727.000
27.24500 716.000
27.29000 759.000
27.33500 816.000
27.38000 851.000
27.42500 859.000
27.47000 964.000
27.51500 1085.000
27.56000 1476.000
27.60500 2071.000
27.65000 1569.000
27.69500 1377.000
27.74000 1541.000
27.78500 1441.000
27.83000 1531.000
27.87500 1586.000
27.92000 1666.000
27.96500 1765.000
28.01000 2042.000
28.05500 2366.000
28.10000 2890.000
28.14500 2827.000
28.19000 2134.000
28.23500 1558.000
28.28000 1243.000
28.32500 1128.000
28.37000 1096.000
28.41500 943.000
28.46000 854.000
28.50500 793.000
28.55000 731.000
28.59500 744.000
28.64000 706.000
28.68500 646.000
28.73000 626.000
28.77500 592.000
28.82000 550.000
28.86500 552.000
28.91000 562.000
28.95500 522.000
29.00000 531.000
29.04500 521.000
29.09000 521.000
29.13500 516.000
29.18000 484.000
29.22500 501.000
29.27000 513.000
29.31500 478.000
29.36000 481.000
29.40500 480.000
29.45000 461.000
29.49500 472.000
29.54000 504.000
29.58500 499.000
29.63000 548.000
29.67500 533.000
29.72000 459.000
29.76500 452.000
29.81000 454.000
29.85500 518.000
29.90000 545.000
29.94500 469.000
29.99000 473.000
30.03500 455.000
30.08000 478.000
30.12500 483.000
30.17000 491.000
30.21500 517.000
30.26000 478.000
30.30500 431.000
30.35000 496.000
30.39500 628.000
30.44000 1065.000
30.48500 855.000
30.53000 564.000
30.57500 449.000
30.62000 387.000
30.66500 375.000
30.71000 372.000
30.75500 388.000
30.80000 348.000
30.84500 367.000
30.89000 372.000
30.93500 407.000
30.98000 429.000
31.02500 381.000
31.07000 351.000
31.11500 354.000
31.16000 380.000
31.20500 343.000
31.25000 341.000
31.29500 350.000
31.34000 360.000
31.38500 351.000
31.43000 354.000
31.47500 349.000
31.52000 350.000
31.56500 363.000
31.61000 438.000
31.65500 452.000
31.70000 393.000
31.74500 382.000
31.79000 337.000
31.83500 300.000
31.88000 351.000
31.92500 356.000
31.97000 387.000
32.01500 443.000
32.06000 425.000
32.10500 349.000
32.15000 366.000
32.19500 344.000
32.24000 313.000
32.28500 332.000
32.33000 354.000
32.37500 333.000
32.42000 360.000
32.46500 352.000
32.51000 386.000
32.55500 325.000
32.60000 343.000
32.64500 396.000
32.69000 373.000
32.73500 346.000
32.78000 368.000
32.82500 298.000
32.87000 313.000
32.91500 336.000
32.96000 318.000
33.00500 333.000
33.05000 352.000
33.09500 361.000
33.14000 332.000
33.18500 323.000
33.23000 305.000
33.27500 304.000
33.32000 331.000
33.36500 315.000
33.41000 325.000
33.45500 329.000
33.50000 325.000
33.54500 337.000
33.59000 356.000
33.63500 352.000
33.68000 356.000
33.72500 421.000
33.77000 367.000
33.81500 354.000
33.86000 308.000
33.90500 325.000
33.95000 388.000
33.99500 400.000
34.04000 341.000
34.08500 341.000
34.13000 300.000
34.17500 294.000
34.22000 294.000
34.26500 298.000
34.31000 310.000
34.35500 325.000
34.40000 308.000
34.44500 284.000
34.49000 286.000
34.53500 314.000
34.58000 302.000
34.62500 293.000
34.67000 281.000
34.71500 259.000
34.76000 266.000
34.80500 280.000
34.85000 271.000
34.89500 258.000
34.94000 283.000
34.98500 311.000
35.03000 297.000
35.07500 282.000
35.12000 260.000
35.16500 250.000
35.21000 304.000
35.25500 300.000
35.30000 329.000
35.34500 343.000
35.39000 304.000
35.43500 316.000
35.48000 276.000
35.52500 314.000
35.57000 331.000
35.61500 292.000
35.66000 311.000
35.70500 315.000
35.75000 331.000
35.79500 453.000
35.84000 406.000
35.88500 325.000
35.93000 306.000
35.97500 299.000
36.02000 318.000
36.06500 291.000
36.11000 288.000
36.15500 296.000
36.20000 284.000
36.24500 291.000
36.29000 302.000
36.33500 285.000
36.38000 300.000
36.42500 302.000
36.47000 307.000
36.51500 292.000
36.56000 299.000
36.60500 279.000
36.65000 292.000
36.69500 279.000
36.74000 278.000
36.78500 285.000
36.83000 284.000
36.87500 269.000
36.92000 264.000
36.96500 278.000
37.01000 295.000
37.05500 289.000
37.10000 257.000
37.14500 299.000
37.19000 277.000
37.23500 288.000
37.28000 286.000
37.32500 263.000
37.37000 286.000
37.41500 282.000
37.46000 277.000
37.50500 272.000
37.55000 293.000
37.59500 278.000
37.64000 285.000
37.68500 276.000
37.73000 272.000
37.77500 281.000
37.82000 290.000
37.86500 244.000
37.91000 244.000
37.95500 260.000
38.00000 298.000
38.04500 277.000
38.09000 269.000
38.13500 239.000
38.18000 262.000
38.22500 255.000
38.27000 256.000
38.31500 274.000
38.36000 256.000
38.40500 243.000
38.45000 245.000
38.49500 244.000
38.54000 266.000
38.58500 322.000
38.63000 300.000
38.67500 291.000
38.72000 300.000
38.76500 331.000
38.81000 443.000
38.85500 357.000
38.90000 295.000
38.94500 268.000
38.99000 304.000
39.03500 293.000
39.08000 275.000
39.12500 290.000
39.17000 249.000
39.21500 259.000
39.26000 267.000
39.30500 280.000
39.35000 285.000
39.39500 306.000
39.44000 315.000
39.48500 301.000
39.53000 263.000
39.57500 282.000
39.62000 256.000
39.66500 229.000
39.71000 260.000
39.75500 233.000
39.80000 202.000
39.84500 220.000
39.89000 224.000
39.93500 212.000
39.98000 232.000
40.02500 225.000
40.07000 236.000
40.11500 219.000
40.16000 205.000
40.20500 219.000
40.25000 223.000
40.29500 204.000
40.34000 211.000
40.38500 223.000
40.43000 215.000
40.47500 204.000
40.52000 219.000
40.56500 221.000
40.61000 204.000
40.65500 186.000
40.70000 205.000
40.74500 231.000
40.79000 256.000
40.83500 293.000
40.88000 228.000
40.92500 227.000
40.97000 187.000
41.01500 229.000
41.06000 224.000
41.10500 206.000
41.15000 197.000
41.19500 195.000
41.24000 204.000
41.28500 200.000
41.33000 191.000
41.37500 183.000
41.42000 217.000
41.46500 196.000
41.51000 216.000
41.55500 212.000
41.60000 229.000
41.64500 200.000
41.69000 210.000
41.73500 201.000
41.78000 201.000
41.82500 204.000
41.87000 200.000
41.91500 196.000
41.96000 199.000
42.00500 184.000
42.05000 235.000
42.09500 205.000
42.14000 218.000
42.18500 227.000
42.23000 230.000
42.27500 246.000
42.32000 238.000
42.36500 223.000
42.41000 230.000
42.45500 235.000
42.50000 225.000
42.54500 237.000
42.59000 207.000
42.63500 218.000
42.68000 207.000
42.72500 204.000
42.77000 235.000
42.81500 238.000
42.86000 218.000
42.90500 216.000
42.95000 215.000
42.99500 223.000
43.04000 217.000
43.08500 219.000
43.13000 231.000
43.17500 238.000
43.22000 221.000
43.26500 235.000
43.31000 242.000
43.35500 222.000
43.40000 214.000
43.44500 197.000
43.49000 210.000
43.53500 207.000
43.58000 191.000
43.62500 192.000
43.67000 199.000
43.71500 183.000
43.76000 202.000
43.80500 190.000
43.85000 191.000
43.89500 222.000
43.94000 178.000
43.98500 201.000
44.03000 192.000
44.07500 186.000
44.12000 187.000
44.16500 200.000
44.21000 203.000
44.25500 207.000
44.30000 215.000
44.34500 204.000
44.39000 182.000
44.43500 180.000
44.48000 169.000
44.52500 186.000
44.57000 199.000
44.61500 188.000
44.66000 211.000
44.70500 213.000
44.75000 222.000
44.79500 202.000
44.84000 200.000
44.88500 223.000
44.93000 229.000
44.97500 227.000
45.02000 228.000
45.06500 220.000
45.11000 233.000
45.15500 218.000
45.20000 200.000
45.24500 226.000
45.29000 200.000
45.33500 208.000
45.38000 202.000
45.42500 217.000
45.47000 261.000
45.51500 246.000
45.56000 224.000
45.60500 212.000
45.65000 192.000
45.69500 204.000
45.74000 196.000
45.78500 198.000
45.83000 179.000
45.87500 193.000
45.92000 215.000
45.96500 163.000
46.01000 185.000
46.05500 204.000
46.10000 186.000
46.14500 198.000
46.19000 190.000
46.23500 209.000
46.28000 258.000
46.32500 207.000
46.37000 190.000
46.41500 183.000
46.46000 155.000
46.50500 178.000
46.55000 176.000
46.59500 183.000
46.64000 190.000
46.68500 185.000
46.73000 184.000
46.77500 181.000
46.82000 196.000
46.86500 194.000
46.91000 188.000
46.95500 187.000
47.00000 212.000
47.04500 237.000
47.09000 202.000
47.13500 194.000
47.18000 199.000
47.22500 189.000
47.27000 183.000
47.31500 187.000
47.36000 198.000
47.40500 189.000
47.45000 172.000
47.49500 198.000
47.54000 190.000
47.58500 219.000
47.63000 190.000
47.67500 209.000
47.72000 201.000
47.76500 222.000
47.81000 198.000
47.85500 194.000
47.90000 217.000
47.94500 232.000
47.99000 217.000
48.03500 185.000
48.08000 168.000
48.12500 187.000
48.17000 191.000
48.21500 187.000
48.26000 199.000
48.30500 202.000
48.35000 204.000
48.39500 182.000
48.44000 220.000
48.48500 190.000
48.53000 177.000
48.57500 183.000
48.62000 189.000
48.66500 177.000
48.71000 183.000
48.75500 187.000
48.80000 192.000
48.84500 180.000
48.89000 162.000
48.93500 185.000
48.98000 198.000
49.02500 199.000
49.07000 214.000
49.11500 212.000
49.16000 181.000
49.20500 188.000
49.25000 210.000
49.29500 209.000
49.34000 200.000
49.38500 193.000
49.43000 204.000
49.47500 176.000
49.52000 174.000
49.56500 159.000
49.61000 168.000
49.65500 157.000
49.70000 166.000
49.74500 182.000
49.79000 177.000
49.83500 198.000
49.88000 174.000
49.92500 172.000
49.97000 175.000
50.01500 157.000
50.06000 176.000
50.10500 170.000
50.15000 187.000
50.19500 188.000
50.24000 165.000
50.28500 168.000
50.33000 174.000
50.37500 191.000
50.42000 191.000
50.46500 166.000
50.51000 191.000
50.55500 191.000
50.60000 190.000
50.64500 209.000
50.69000 201.000
50.73500 198.000
50.78000 165.000
50.82500 178.000
50.87000 163.000
50.91500 173.000
50.96000 205.000
51.00500 179.000
51.05000 178.000
51.09500 169.000
51.14000 161.000
51.18500 172.000
51.23000 183.000
51.27500 209.000
51.32000 181.000
51.36500 187.000
51.41000 179.000
51.45500 177.000
51.50000 173.000
51.54500 187.000
51.59000 191.000
51.63500 180.000
51.68000 200.000
51.72500 172.000
51.77000 192.000
51.81500 174.000
51.86000 166.000
51.90500 170.000
51.95000 162.000
51.99500 190.000
52.04000 193.000
52.08500 167.000
52.13000 183.000
52.17500 170.000
52.22000 188.000
52.26500 228.000
52.31000 208.000
52.35500 208.000
52.40000 201.000
52.44500 203.000
52.49000 172.000
52.53500 176.000
52.58000 177.000
52.62500 180.000
52.67000 163.000
52.71500 180.000
52.76000 203.000
52.80500 200.000
52.85000 208.000
52.89500 187.000
52.94000 198.000
52.98500 226.000
53.03000 191.000
53.07500 196.000
53.12000 179.000
53.16500 201.000
53.21000 173.000
53.25500 169.000
53.30000 173.000
53.34500 190.000
53.39000 226.000
53.43500 211.000
53.48000 205.000
53.52500 214.000
53.57000 201.000
53.61500 188.000
53.66000 197.000
53.70500 189.000
53.75000 203.000
53.79500 210.000
53.84000 197.000
53.88500 210.000
53.93000 237.000
53.97500 255.000
54.02000 224.000
54.06500 203.000
54.11000 227.000
54.15500 232.000
54.20000 226.000
54.24500 191.000
54.29000 179.000
54.33500 200.000
54.38000 192.000
54.42500 181.000
54.47000 184.000
54.51500 198.000
54.56000 166.000
54.60500 209.000
54.65000 193.000
54.69500 204.000
54.74000 201.000
54.78500 209.000
54.83000 212.000
54.87500 167.000
54.92000 183.000
54.96500 185.000
55.01000 203.000
55.05500 181.000
55.10000 189.000
55.14500 192.000
55.19000 192.000
55.23500 176.000
55.28000 167.000
55.32500 183.000
55.37000 189.000
55.41500 193.000
55.46000 200.000
55.50500 176.000
55.55000 169.000
55.59500 186.000
55.64000 194.000
55.68500 203.000
55.73000 197.000
55.77500 198.000
55.82000 198.000
55.86500 172.000
55.91000 199.000
55.95500 181.000
56.00000 186.000
56.04500 174.000
56.09000 181.000
56.13500 190.000
56.18000 192.000
56.22500 191.000
56.27000 183.000
56.31500 161.000
56.36000 167.000
56.40500 164.000
56.45000 199.000
56.49500 175.000
56.54000 172.000
56.58500 191.000
56.63000 181.000
56.67500 172.000
56.72000 176.000
56.76500 171.000
56.81000 181.000
56.85500 207.000
56.90000 183.000
56.94500 184.000
56.99000 176.000
57.03500 161.000
57.08000 165.000
57.12500 191.000
57.17000 177.000
57.21500 154.000
57.26000 166.000
57.30500 178.000
57.35000 187.000
57.39500 200.000
57.44000 174.000
57.48500 181.000
57.53000 179.000
57.57500 176.000
57.62000 191.000
57.66500 183.000
57.71000 196.000
57.75500 184.000
57.80000 173.000
57.84500 183.000
57.89000 188.000
57.93500 180.000
57.98000 190.000
58.02500 176.000
58.07000 193.000
58.11500 197.000
58.16000 198.000
58.20500 196.000
58.25000 201.000
58.29500 177.000
58.34000 187.000
58.38500 180.000
58.43000 201.000
58.47500 210.000
58.52000 204.000
58.56500 165.000
58.61000 203.000
58.65500 187.000
58.70000 177.000
58.74500 147.000
58.79000 161.000
58.83500 165.000
58.88000 158.000
58.92500 160.000
58.97000 156.000
59.01500 133.000
59.06000 148.000
59.10500 148.000
59.15000 149.000
59.19500 162.000
59.24000 161.000
59.28500 167.000
59.33000 145.000
59.37500 158.000
59.42000 169.000
59.46500 179.000
59.51000 151.000
59.55500 145.000
59.60000 155.000
59.64500 152.000
59.69000 150.000
59.73500 165.000
59.78000 140.000
59.82500 167.000
59.87000 155.000
59.91500 177.000
59.96000 160.000
60.00500 145.000
60.05000 127.000
60.09500 145.000
60.14000 152.000
60.18500 162.000
60.23000 148.000
60.27500 136.000
60.32000 154.000
60.36500 148.000
60.41000 146.000
60.45500 137.000
60.50000 134.000
60.54500 147.000
60.59000 153.000
60.63500 142.000
60.68000 148.000
60.72500 136.000
60.77000 124.000
60.81500 138.000
60.86000 158.000
60.90500 148.000
60.95000 136.000
60.99500 154.000
61.04000 120.000
61.08500 157.000
61.13000 145.000
61.17500 145.000
61.22000 151.000
61.26500 142.000
61.31000 138.000
61.35500 149.000
61.40000 138.000
61.44500 137.000
61.49000 146.000
61.53500 137.000
61.58000 140.000
61.62500 149.000
61.67000 138.000
61.71500 155.000
61.76000 161.000
61.80500 136.000
61.85000 133.000
61.89500 144.000
61.94000 147.000
61.98500 148.000