File: ISoD/xrd_data/HSC072_range_1.xy
2.00000 2.000
2.04500 3.000
2.09000 6.000
2.13500 4.000
2.18000 6.000
2.22500 9.000
2.27000 3.000
2.31500 2.000
2.36000 1.000
2.40500 4.000
2.45000 4.000
2.49500 5.000
2.54000 4.000
2.58500 3.000
2.63000 2.000
2.67500 3.000
2.72000 2.000
2.76500 9.000
2.81000 5.000
2.85500 5.000
2.90000 5.000
2.94500 3.000
2.99000 3.000
3.03500 3.000
3.08000 1.000
3.12500 7.000
3.17000 21.000
3.21500 79.000
3.26000 151.000
3.30500 224.000
3.35000 263.000
3.39500 279.000
3.44000 265.000
3.48500 255.000
3.53000 244.000
3.57500 250.000
3.62000 258.000
3.66500 261.000
3.71000 295.000
3.75500 302.000
3.80000 250.000
3.84500 252.000
3.89000 278.000
3.93500 241.000
3.98000 258.000
4.02500 271.000
4.07000 275.000
4.11500 249.000
4.16000 257.000
4.20500 286.000
4.25000 255.000
4.29500 246.000
4.34000 244.000
4.38500 247.000
4.43000 261.000
4.47500 286.000
4.52000 258.000
4.56500 272.000
4.61000 271.000
4.65500 291.000
4.70000 281.000
4.74500 284.000
4.79000 267.000
4.83500 267.000
4.88000 268.000
4.92500 269.000
4.97000 290.000
5.01500 282.000
5.06000 287.000
5.10500 287.000
5.15000 306.000
5.19500 290.000
5.24000 279.000
5.28500 315.000
5.33000 299.000
5.37500 291.000
5.42000 309.000
5.46500 288.000
5.51000 285.000
5.55500 318.000
5.60000 290.000
5.64500 292.000
5.69000 289.000
5.73500 308.000
5.78000 273.000
5.82500 307.000
5.87000 331.000
5.91500 310.000
5.96000 299.000
6.00500 305.000
6.05000 296.000
6.09500 317.000
6.14000 300.000
6.18500 324.000
6.23000 314.000
6.27500 313.000
6.32000 323.000
6.36500 333.000
6.41000 302.000
6.45500 298.000
6.50000 323.000
6.54500 334.000
6.59000 335.000
6.63500 331.000
6.68000 340.000
6.72500 351.000
6.77000 303.000
6.81500 368.000
6.86000 335.000
6.90500 323.000
6.95000 342.000
6.99500 323.000
7.04000 336.000
7.08500 343.000
7.13000 330.000
7.17500 328.000
7.22000 332.000
7.26500 360.000
7.31000 333.000
7.35500 363.000
7.40000 333.000
7.44500 326.000
7.49000 373.000
7.53500 330.000
7.58000 358.000
7.62500 331.000
7.67000 355.000
7.71500 335.000
7.76000 328.000
7.80500 343.000
7.85000 354.000
7.89500 329.000
7.94000 347.000
7.98500 347.000
8.03000 347.000
8.07500 351.000
8.12000 369.000
8.16500 367.000
8.21000 332.000
8.25500 372.000
8.30000 359.000
8.34500 352.000
8.39000 367.000
8.43500 366.000
8.48000 356.000
8.52500 342.000
8.57000 381.000
8.61500 344.000
8.66000 350.000
8.70500 379.000
8.75000 371.000
8.79500 373.000
8.84000 348.000
8.88500 355.000
8.93000 378.000
8.97500 380.000
9.02000 367.000
9.06500 330.000
9.11000 371.000
9.15500 363.000
9.20000 357.000
9.24500 362.000
9.29000 360.000
9.33500 365.000
9.38000 358.000
9.42500 370.000
9.47000 343.000
9.51500 357.000
9.56000 359.000
9.60500 358.000
9.65000 339.000
9.69500 363.000
9.74000 364.000
9.78500 360.000
9.83000 368.000
9.87500 320.000
9.92000 357.000
9.96500 326.000
10.01000 376.000
10.05500 368.000
10.10000 355.000
10.14500 352.000
10.19000 384.000
10.23500 370.000
10.28000 359.000
10.32500 367.000
10.37000 379.000
10.41500 379.000
10.46000 374.000
10.50500 382.000
10.55000 348.000
10.59500 382.000
10.64000 355.000
10.68500 355.000
10.73000 371.000
10.77500 384.000
10.82000 382.000
10.86500 376.000
10.91000 381.000
10.95500 366.000
11.00000 347.000
11.04500 380.000
11.09000 341.000
11.13500 355.000
11.18000 387.000
11.22500 384.000
11.27000 389.000
11.31500 363.000
11.36000 353.000
11.40500 376.000
11.45000 356.000
11.49500 381.000
11.54000 366.000
11.58500 373.000
11.63000 383.000
11.67500 372.000
11.72000 368.000
11.76500 368.000
11.81000 380.000
11.85500 356.000
11.90000 345.000
11.94500 381.000
11.99000 374.000
12.03500 380.000
12.08000 361.000
12.12500 383.000
12.17000 392.000
12.21500 369.000
12.26000 404.000
12.30500 371.000
12.35000 370.000
12.39500 371.000
12.44000 395.000
12.48500 381.000
12.53000 353.000
12.57500 409.000
12.62000 379.000
12.66500 357.000
12.71000 382.000
12.75500 398.000
12.80000 390.000
12.84500 381.000
12.89000 396.000
12.93500 374.000
12.98000 411.000
13.02500 406.000
13.07000 385.000
13.11500 378.000
13.16000 379.000
13.20500 376.000
13.25000 365.000
13.29500 363.000
13.34000 399.000
13.38500 387.000
13.43000 416.000
13.47500 391.000
13.52000 396.000
13.56500 392.000
13.61000 380.000
13.65500 388.000
13.70000 385.000
13.74500 372.000
13.79000 372.000
13.83500 357.000
13.88000 385.000
13.92500 359.000
13.97000 373.000
14.01500 402.000
14.06000 391.000
14.10500 422.000
14.15000 372.000
14.19500 386.000
14.24000 400.000
14.28500 391.000
14.33000 412.000
14.37500 362.000
14.42000 363.000
14.46500 348.000
14.51000 407.000
14.55500 401.000
14.60000 367.000
14.64500 390.000
14.69000 403.000
14.73500 390.000
14.78000 386.000
14.82500 393.000
14.87000 423.000
14.91500 369.000
14.96000 396.000
15.00500 386.000
15.05000 371.000
15.09500 362.000
15.14000 363.000
15.18500 385.000
15.23000 373.000
15.27500 386.000
15.32000 396.000
15.36500 389.000
15.41000 372.000
15.45500 362.000
15.50000 392.000
15.54500 368.000
15.59000 370.000
15.63500 382.000
15.68000 373.000
15.72500 407.000
15.77000 387.000
15.81500 397.000
15.86000 379.000
15.90500 369.000
15.95000 395.000
15.99500 392.000
16.04000 368.000
16.08500 377.000
16.13000 405.000
16.17500 394.000
16.22000 390.000
16.26500 366.000
16.31000 370.000
16.35500 411.000
16.40000 397.000
16.44500 413.000
16.49000 344.000
16.53500 392.000
16.58000 370.000
16.62500 391.000
16.67000 387.000
16.71500 368.000
16.76000 389.000
16.80500 399.000
16.85000 390.000
16.89500 373.000
16.94000 414.000
16.98500 362.000
17.03000 372.000
17.07500 387.000
17.12000 398.000
17.16500 392.000
17.21000 381.000
17.25500 372.000
17.30000 379.000
17.34500 381.000
17.39000 389.000
17.43500 403.000
17.48000 395.000
17.52500 397.000
17.57000 388.000
17.61500 422.000
17.66000 402.000
17.70500 395.000
17.75000 385.000
17.79500 384.000
17.84000 408.000
17.88500 408.000
17.93000 420.000
17.97500 393.000
18.02000 385.000
18.06500 423.000
18.11000 379.000
18.15500 398.000
18.20000 381.000
18.24500 382.000
18.29000 412.000
18.33500 414.000
18.38000 389.000
18.42500 385.000
18.47000 379.000
18.51500 380.000
18.56000 392.000
18.60500 400.000
18.65000 398.000
18.69500 401.000
18.74000 405.000
18.78500 417.000
18.83000 399.000
18.87500 384.000
18.92000 393.000
18.96500 377.000
19.01000 425.000
19.05500 413.000
19.10000 385.000
19.14500 421.000
19.19000 440.000
19.23500 417.000
19.28000 410.000
19.32500 392.000
19.37000 391.000
19.41500 378.000
19.46000 402.000
19.50500 416.000
19.55000 372.000
19.59500 389.000
19.64000 384.000
19.68500 374.000
19.73000 387.000
19.77500 414.000
19.82000 381.000
19.86500 400.000
19.91000 403.000
19.95500 399.000
20.00000 365.000
20.04500 370.000
20.09000 413.000
20.13500 395.000
20.18000 408.000
20.22500 403.000
20.27000 399.000
20.31500 424.000
20.36000 420.000
20.40500 415.000
20.45000 385.000
20.49500 385.000
20.54000 393.000
20.58500 403.000
20.63000 400.000
20.67500 414.000
20.72000 372.000
20.76500 402.000
20.81000 441.000
20.85500 402.000
20.90000 410.000
20.94500 408.000
20.99000 429.000
21.03500 411.000
21.08000 424.000
21.12500 406.000
21.17000 413.000
21.21500 396.000
21.26000 445.000
21.30500 411.000
21.35000 420.000
21.39500 448.000
21.44000 395.000
21.48500 402.000
21.53000 435.000
21.57500 414.000
21.62000 396.000
21.66500 419.000
21.71000 409.000
21.75500 399.000
21.80000 431.000
21.84500 395.000
21.89000 427.000
21.93500 420.000
21.98000 421.000
22.02500 441.000
22.07000 433.000
22.11500 409.000
22.16000 437.000
22.20500 430.000
22.25000 387.000
22.29500 388.000
22.34000 403.000
22.38500 420.000
22.43000 408.000
22.47500 419.000
22.52000 427.000
22.56500 399.000
22.61000 400.000
22.65500 418.000
22.70000 409.000
22.74500 397.000
22.79000 414.000
22.83500 411.000
22.88000 401.000
22.92500 434.000
22.97000 412.000
23.01500 409.000
23.06000 419.000
23.10500 419.000
23.15000 447.000
23.19500 411.000
23.24000 399.000
23.28500 416.000
23.33000 425.000
23.37500 397.000
23.42000 407.000
23.46500 399.000
23.51000 446.000
23.55500 390.000
23.60000 398.000
23.64500 403.000
23.69000 392.000
23.73500 408.000
23.78000 384.000
23.82500 418.000
23.87000 403.000
23.91500 387.000
23.96000 398.000
24.00500 406.000
24.05000 396.000
24.09500 403.000
24.14000 448.000
24.18500 393.000
24.23000 397.000
24.27500 415.000
24.32000 438.000
24.36500 391.000
24.41000 391.000
24.45500 435.000
24.50000 458.000
24.54500 413.000
24.59000 421.000
24.63500 407.000
24.68000 414.000
24.72500 418.000
24.77000 422.000
24.81500 414.000
24.86000 389.000
24.90500 421.000
24.95000 385.000
24.99500 407.000
25.04000 395.000
25.08500 416.000
25.13000 401.000
25.17500 406.000
25.22000 429.000
25.26500 414.000
25.31000 420.000
25.35500 410.000
25.40000 390.000
25.44500 411.000
25.49000 436.000
25.53500 419.000
25.58000 411.000
25.62500 409.000
25.67000 401.000
25.71500 441.000
25.76000 437.000
25.80500 390.000
25.85000 396.000
25.89500 432.000
25.94000 451.000
25.98500 435.000
26.03000 408.000
26.07500 405.000
26.12000 412.000
26.16500 415.000
26.21000 412.000
26.25500 415.000
26.30000 386.000
26.34500 433.000
26.39000 434.000
26.43500 412.000
26.48000 431.000
26.52500 439.000
26.57000 421.000
26.61500 423.000
26.66000 448.000
26.70500 401.000
26.75000 410.000
26.79500 434.000
26.84000 423.000
26.88500 440.000
26.93000 430.000
26.97500 437.000
27.02000 424.000
27.06500 424.000
27.11000 442.000
27.15500 398.000
27.20000 414.000
27.24500 423.000
27.29000 456.000
27.33500 446.000
27.38000 439.000
27.42500 466.000
27.47000 455.000
27.51500 466.000
27.56000 466.000
27.60500 491.000
27.65000 455.000
27.69500 463.000
27.74000 434.000
27.78500 472.000
27.83000 452.000
27.87500 433.000
27.92000 466.000
27.96500 432.000
28.01000 436.000
28.05500 414.000
28.10000 440.000
28.14500 449.000
28.19000 427.000
28.23500 439.000
28.28000 400.000
28.32500 451.000
28.37000 391.000
28.41500 417.000
28.46000 400.000
28.50500 388.000
28.55000 382.000
28.59500 373.000
28.64000 373.000
28.68500 391.000
28.73000 396.000
28.77500 346.000
28.82000 347.000
28.86500 361.000
28.91000 344.000
28.95500 365.000
29.00000 355.000
29.04500 354.000
29.09000 376.000
29.13500 347.000
29.18000 340.000
29.22500 379.000
29.27000 361.000
29.31500 331.000
29.36000 372.000
29.40500 380.000
29.45000 356.000
29.49500 355.000
29.54000 357.000
29.58500 359.000
29.63000 317.000
29.67500 370.000
29.72000 342.000
29.76500 337.000
29.81000 337.000
29.85500 325.000
29.90000 323.000
29.94500 317.000
29.99000 363.000
30.03500 336.000
30.08000 329.000
30.12500 330.000
30.17000 310.000
30.21500 329.000
30.26000 294.000
30.30500 323.000
30.35000 304.000
30.39500 322.000
30.44000 341.000
30.48500 307.000
30.53000 316.000
30.57500 320.000
30.62000 316.000
30.66500 328.000
30.71000 346.000
30.75500 307.000
30.80000 314.000
30.84500 328.000
30.89000 340.000
30.93500 309.000
30.98000 295.000
31.02500 332.000
31.07000 307.000
31.11500 293.000
31.16000 311.000
31.20500 282.000
31.25000 313.000
31.29500 278.000
31.34000 318.000
31.38500 332.000
31.43000 303.000
31.47500 300.000
31.52000 323.000
31.56500 299.000
31.61000 304.000
31.65500 259.000
31.70000 283.000
31.74500 283.000
31.79000 279.000
31.83500 281.000
31.88000 267.000
31.92500 298.000
31.97000 263.000
32.01500 293.000
32.06000 277.000
32.10500 276.000
32.15000 294.000
32.19500 257.000
32.24000 262.000
32.28500 278.000
32.33000 305.000
32.37500 274.000
32.42000 267.000
32.46500 258.000
32.51000 284.000
32.55500 275.000
32.60000 285.000
32.64500 272.000
32.69000 296.000
32.73500 282.000
32.78000 273.000
32.82500 274.000
32.87000 263.000
32.91500 260.000
32.96000 274.000
33.00500 247.000
33.05000 264.000
33.09500 267.000
33.14000 242.000
33.18500 231.000
33.23000 256.000
33.27500 249.000
33.32000 242.000
33.36500 244.000
33.41000 240.000
33.45500 256.000
33.50000 244.000
33.54500 251.000
33.59000 274.000
33.63500 255.000
33.68000 240.000
33.72500 255.000
33.77000 232.000
33.81500 249.000
33.86000 248.000
33.90500 254.000
33.95000 236.000
33.99500 244.000
34.04000 231.000
34.08500 237.000
34.13000 239.000
34.17500 231.000
34.22000 222.000
34.26500 243.000
34.31000 220.000
34.35500 226.000
34.40000 239.000
34.44500 241.000
34.49000 242.000
34.53500 240.000
34.58000 221.000
34.62500 230.000
34.67000 231.000
34.71500 232.000
34.76000 214.000
34.80500 237.000
34.85000 222.000
34.89500 237.000
34.94000 230.000
34.98500 219.000
35.03000 202.000
35.07500 232.000
35.12000 210.000
35.16500 226.000
35.21000 224.000
35.25500 210.000
35.30000 204.000
35.34500 224.000
35.39000 208.000
35.43500 219.000
35.48000 222.000
35.52500 172.000
35.57000 223.000
35.61500 211.000
35.66000 200.000
35.70500 206.000
35.75000 210.000
35.79500 214.000
35.84000 208.000
35.88500 205.000
35.93000 211.000
35.97500 202.000
36.02000 197.000
36.06500 218.000
36.11000 223.000
36.15500 198.000
36.20000 162.000
36.24500 210.000
36.29000 194.000
36.33500 194.000
36.38000 179.000
36.42500 176.000
36.47000 183.000
36.51500 184.000
36.56000 210.000
36.60500 179.000
36.65000 194.000
36.69500 188.000
36.74000 194.000
36.78500 193.000
36.83000 188.000
36.87500 201.000
36.92000 184.000
36.96500 195.000
37.01000 201.000
37.05500 194.000
37.10000 180.000
37.14500 204.000
37.19000 199.000
37.23500 166.000
37.28000 180.000
37.32500 205.000
37.37000 200.000
37.41500 175.000
37.46000 186.000
37.50500 164.000
37.55000 191.000
37.59500 181.000
37.64000 184.000
37.68500 165.000
37.73000 192.000
37.77500 184.000
37.82000 175.000
37.86500 146.000
37.91000 167.000
37.95500 159.000
38.00000 172.000
38.04500 175.000
38.09000 180.000
38.13500 158.000
38.18000 184.000
38.22500 162.000
38.27000 199.000
38.31500 180.000
38.36000 173.000
38.40500 183.000
38.45000 176.000
38.49500 177.000
38.54000 177.000
38.58500 184.000
38.63000 162.000
38.67500 181.000
38.72000 162.000
38.76500 174.000
38.81000 151.000
38.85500 194.000
38.90000 168.000
38.94500 168.000
38.99000 206.000
39.03500 183.000
39.08000 161.000
39.12500 171.000
39.17000 175.000
39.21500 168.000
39.26000 166.000
39.30500 163.000
39.35000 160.000
39.39500 174.000
39.44000 187.000
39.48500 159.000
39.53000 161.000
39.57500 180.000
39.62000 173.000
39.66500 169.000
39.71000 176.000
39.75500 151.000
39.80000 172.000
39.84500 161.000
39.89000 157.000
39.93500 153.000
39.98000 163.000
40.02500 154.000
40.07000 152.000
40.11500 160.000
40.16000 164.000
40.20500 146.000
40.25000 159.000
40.29500 171.000
40.34000 156.000
40.38500 164.000
40.43000 161.000
40.47500 168.000
40.52000 142.000
40.56500 159.000
40.61000 158.000
40.65500 168.000
40.70000 152.000
40.74500 148.000
40.79000 159.000
40.83500 134.000
40.88000 151.000
40.92500 146.000
40.97000 141.000
41.01500 180.000
41.06000 167.000
41.10500 166.000
41.15000 164.000
41.19500 164.000
41.24000 149.000
41.28500 169.000
41.33000 153.000
41.37500 164.000
41.42000 153.000
41.46500 151.000
41.51000 166.000
41.55500 154.000
41.60000 158.000
41.64500 154.000
41.69000 149.000
41.73500 167.000
41.78000 171.000
41.82500 164.000
41.87000 152.000
41.91500 140.000
41.96000 152.000
42.00500 160.000
42.05000 159.000
42.09500 152.000
42.14000 148.000
42.18500 160.000
42.23000 151.000
42.27500 146.000
42.32000 161.000
42.36500 157.000
42.41000 160.000
42.45500 165.000
42.50000 151.000
42.54500 160.000
42.59000 154.000
42.63500 152.000
42.68000 157.000
42.72500 163.000
42.77000 171.000
42.81500 167.000
42.86000 153.000
42.90500 161.000
42.95000 165.000
42.99500 134.000
43.04000 160.000
43.08500 163.000
43.13000 146.000
43.17500 136.000
43.22000 180.000
43.26500 161.000
43.31000 154.000
43.35500 159.000
43.40000 157.000
43.44500 152.000
43.49000 130.000
43.53500 146.000
43.58000 144.000
43.62500 160.000
43.67000 141.000
43.71500 156.000
43.76000 157.000
43.80500 155.000
43.85000 148.000
43.89500 147.000
43.94000 147.000
43.98500 164.000
44.03000 174.000
44.07500 154.000
44.12000 146.000
44.16500 139.000
44.21000 141.000
44.25500 149.000
44.30000 159.000
44.34500 136.000
44.39000 162.000
44.43500 165.000
44.48000 136.000
44.52500 134.000
44.57000 157.000
44.61500 133.000
44.66000 144.000
44.70500 158.000
44.75000 144.000
44.79500 161.000
44.84000 140.000
44.88500 164.000
44.93000 145.000
44.97500 144.000
45.02000 113.000
45.06500 128.000
45.11000 142.000
45.15500 143.000
45.20000 135.000
45.24500 145.000
45.29000 131.000
45.33500 153.000
45.38000 142.000
45.42500 141.000
45.47000 130.000
45.51500 152.000
45.56000 141.000
45.60500 144.000
45.65000 139.000
45.69500 145.000
45.74000 144.000
45.78500 135.000
45.83000 146.000
45.87500 138.000
45.92000 148.000
45.96500 155.000
46.01000 159.000
46.05500 151.000
46.10000 139.000
46.14500 127.000
46.19000 139.000
46.23500 147.000
46.28000 137.000
46.32500 133.000
46.37000 150.000
46.41500 120.000
46.46000 132.000
46.50500 138.000
46.55000 134.000
46.59500 150.000
46.64000 144.000
46.68500 132.000
46.73000 139.000
46.77500 115.000
46.82000 137.000
46.86500 140.000
46.91000 136.000
46.95500 134.000
47.00000 133.000
47.04500 147.000
47.09000 141.000
47.13500 131.000
47.18000 143.000
47.22500 156.000
47.27000 147.000
47.31500 149.000
47.36000 123.000
47.40500 131.000
47.45000 133.000
47.49500 140.000
47.54000 162.000
47.58500 134.000
47.63000 142.000
47.67500 152.000
47.72000 138.000
47.76500 133.000
47.81000 137.000
47.85500 130.000
47.90000 111.000
47.94500 118.000
47.99000 120.000
48.03500 136.000
48.08000 136.000
48.12500 131.000
48.17000 121.000
48.21500 141.000
48.26000 128.000
48.30500 126.000
48.35000 129.000
48.39500 135.000
48.44000 125.000
48.48500 136.000
48.53000 127.000
48.57500 141.000
48.62000 135.000
48.66500 118.000
48.71000 126.000
48.75500 115.000
48.80000 124.000
48.84500 122.000
48.89000 115.000
48.93500 118.000
48.98000 130.000
49.02500 127.000
49.07000 117.000
49.11500 131.000
49.16000 130.000
49.20500 147.000
49.25000 109.000
49.29500 107.000
49.34000 137.000
49.38500 110.000
49.43000 125.000
49.47500 113.000
49.52000 141.000
49.56500 123.000
49.61000 137.000
49.65500 136.000
49.70000 119.000
49.74500 128.000
49.79000 147.000
49.83500 133.000
49.88000 125.000
49.92500 110.000
49.97000 131.000
50.01500 124.000
50.06000 120.000
50.10500 131.000
50.15000 137.000
50.19500 115.000
50.24000 127.000
50.28500 130.000
50.33000 120.000
50.37500 113.000
50.42000 135.000
50.46500 117.000
50.51000 121.000
50.55500 120.000
50.60000 125.000
50.64500 108.000
50.69000 124.000
50.73500 129.000
50.78000 107.000
50.82500 103.000
50.87000 130.000
50.91500 125.000
50.96000 120.000
51.00500 115.000
51.05000 119.000
51.09500 124.000
51.14000 113.000
51.18500 142.000
51.23000 113.000
51.27500 108.000
51.32000 103.000
51.36500 113.000
51.41000 118.000
51.45500 104.000
51.50000 113.000
51.54500 132.000
51.59000 131.000
51.63500 112.000
51.68000 109.000
51.72500 126.000
51.77000 131.000
51.81500 115.000
51.86000 123.000
51.90500 118.000
51.95000 121.000
51.99500 120.000
52.04000 120.000
52.08500 125.000
52.13000 116.000
52.17500 124.000
52.22000 130.000
52.26500 114.000
52.31000 96.000
52.35500 118.000
52.40000 123.000
52.44500 132.000
52.49000 113.000
52.53500 129.000
52.58000 116.000
52.62500 138.000
52.67000 137.000
52.71500 116.000
52.76000 121.000
52.80500 102.000
52.85000 123.000
52.89500 132.000
52.94000 105.000
52.98500 105.000
53.03000 117.000
53.07500 121.000
53.12000 132.000
53.16500 113.000
53.21000 105.000
53.25500 113.000
53.30000 103.000
53.34500 133.000
53.39000 113.000
53.43500 115.000
53.48000 125.000
53.52500 118.000
53.57000 122.000
53.61500 104.000
53.66000 121.000
53.70500 118.000
53.75000 110.000
53.79500 101.000
53.84000 112.000
53.88500 111.000
53.93000 128.000
53.97500 123.000
54.02000 99.000
54.06500 106.000
54.11000 119.000
54.15500 123.000
54.20000 118.000
54.24500 117.000
54.29000 106.000
54.33500 118.000
54.38000 124.000
54.42500 114.000
54.47000 107.000
54.51500 114.000
54.56000 112.000
54.60500 115.000
54.65000 98.000
54.69500 131.000
54.74000 123.000
54.78500 121.000
54.83000 109.000
54.87500 125.000
54.92000 100.000
54.96500 102.000
55.01000 121.000
55.05500 103.000
55.10000 116.000
55.14500 103.000
55.19000 104.000
55.23500 131.000
55.28000 123.000
55.32500 110.000
55.37000 95.000
55.41500 99.000
55.46000 108.000
55.50500 109.000
55.55000 116.000
55.59500 133.000
55.64000 114.000
55.68500 117.000
55.73000 119.000
55.77500 115.000
55.82000 116.000
55.86500 120.000
55.91000 121.000
55.95500 110.000
56.00000 99.000
56.04500 97.000
56.09000 121.000
56.13500 120.000
56.18000 118.000
56.22500 122.000
56.27000 122.000
56.31500 116.000
56.36000 119.000
56.40500 105.000
56.45000 108.000
56.49500 104.000
56.54000 105.000
56.58500 116.000
56.63000 106.000
56.67500 103.000
56.72000 111.000
56.76500 116.000
56.81000 110.000
56.85500 131.000
56.90000 107.000
56.94500 103.000
56.99000 116.000
57.03500 115.000
57.08000 111.000
57.12500 88.000
57.17000 105.000
57.21500 107.000
57.26000 120.000
57.30500 109.000
57.35000 107.000
57.39500 117.000
57.44000 116.000
57.48500 105.000
57.53000 112.000
57.57500 125.000
57.62000 115.000
57.66500 102.000
57.71000 104.000
57.75500 111.000
57.80000 113.000
57.84500 121.000
57.89000 130.000
57.93500 112.000
57.98000 114.000
58.02500 118.000
58.07000 128.000
58.11500 111.000
58.16000 108.000
58.20500 111.000
58.25000 111.000
58.29500 132.000
58.34000 118.000
58.38500 117.000
58.43000 105.000
58.47500 106.000
58.52000 112.000
58.56500 102.000
58.61000 111.000
58.65500 110.000
58.70000 129.000
58.74500 116.000
58.79000 101.000
58.83500 112.000
58.88000 109.000
58.92500 99.000
58.97000 110.000
59.01500 111.000
59.06000 97.000
59.10500 107.000
59.15000 116.000
59.19500 97.000
59.24000 119.000
59.28500 93.000
59.33000 103.000
59.37500 109.000
59.42000 91.000
59.46500 113.000
59.51000 99.000
59.55500 114.000
59.60000 113.000
59.64500 96.000
59.69000 118.000
59.73500 93.000
59.78000 106.000
59.82500 106.000
59.87000 98.000
59.91500 106.000
59.96000 110.000
60.00500 106.000
60.05000 105.000
60.09500 105.000
60.14000 118.000
60.18500 111.000
60.23000 87.000
60.27500 118.000
60.32000 103.000
60.36500 96.000
60.41000 111.000
60.45500 97.000
60.50000 104.000
60.54500 112.000
60.59000 105.000
60.63500 107.000
60.68000 93.000
60.72500 105.000
60.77000 110.000
60.81500 106.000
60.86000 102.000
60.90500 110.000
60.95000 90.000
60.99500 105.000
61.04000 91.000
61.08500 109.000
61.13000 103.000
61.17500 102.000
61.22000 109.000
61.26500 95.000
61.31000 110.000
61.35500 108.000
61.40000 108.000
61.44500 97.000
61.49000 99.000
61.53500 107.000
61.58000 112.000
61.62500 115.000
61.67000 96.000
61.71500 101.000
61.76000 102.000
61.80500 79.000
61.85000 99.000
61.89500 108.000
61.94000 110.000
61.98500 109.000