File: ISoD/xrd_data/HSC087_gewII.xy
2.00000 1.000
2.04500 4.000
2.09000 1.000
2.13500 2.000
2.18000 0.000
2.22500 5.000
2.27000 2.000
2.31500 2.000
2.36000 2.000
2.40500 1.000
2.45000 3.000
2.49500 1.000
2.54000 0.000
2.58500 4.000
2.63000 1.000
2.67500 4.000
2.72000 2.000
2.76500 2.000
2.81000 3.000
2.85500 3.000
2.90000 2.000
2.94500 3.000
2.99000 2.000
3.03500 2.000
3.08000 4.000
3.12500 8.000
3.17000 10.000
3.21500 47.000
3.26000 124.000
3.30500 162.000
3.35000 144.000
3.39500 137.000
3.44000 139.000
3.48500 122.000
3.53000 143.000
3.57500 154.000
3.62000 150.000
3.66500 142.000
3.71000 148.000
3.75500 139.000
3.80000 128.000
3.84500 137.000
3.89000 152.000
3.93500 138.000
3.98000 151.000
4.02500 156.000
4.07000 149.000
4.11500 163.000
4.16000 159.000
4.20500 151.000
4.25000 146.000
4.29500 152.000
4.34000 159.000
4.38500 174.000
4.43000 150.000
4.47500 152.000
4.52000 159.000
4.56500 150.000
4.61000 156.000
4.65500 158.000
4.70000 148.000
4.74500 154.000
4.79000 163.000
4.83500 164.000
4.88000 166.000
4.92500 163.000
4.97000 151.000
5.01500 167.000
5.06000 171.000
5.10500 152.000
5.15000 168.000
5.19500 161.000
5.24000 171.000
5.28500 177.000
5.33000 171.000
5.37500 180.000
5.42000 172.000
5.46500 198.000
5.51000 160.000
5.55500 165.000
5.60000 194.000
5.64500 197.000
5.69000 217.000
5.73500 179.000
5.78000 202.000
5.82500 197.000
5.87000 219.000
5.91500 238.000
5.96000 247.000
6.00500 245.000
6.05000 241.000
6.09500 312.000
6.14000 318.000
6.18500 473.000
6.23000 613.000
6.27500 574.000
6.32000 580.000
6.36500 633.000
6.41000 741.000
6.45500 705.000
6.50000 682.000
6.54500 572.000
6.59000 434.000
6.63500 251.000
6.68000 210.000
6.72500 219.000
6.77000 203.000
6.81500 194.000
6.86000 191.000
6.90500 198.000
6.95000 194.000
6.99500 195.000
7.04000 220.000
7.08500 205.000
7.13000 185.000
7.17500 169.000
7.22000 206.000
7.26500 213.000
7.31000 201.000
7.35500 214.000
7.40000 200.000
7.44500 201.000
7.49000 194.000
7.53500 219.000
7.58000 202.000
7.62500 209.000
7.67000 223.000
7.71500 201.000
7.76000 233.000
7.80500 215.000
7.85000 225.000
7.89500 217.000
7.94000 226.000
7.98500 208.000
8.03000 246.000
8.07500 247.000
8.12000 235.000
8.16500 264.000
8.21000 255.000
8.25500 255.000
8.30000 269.000
8.34500 288.000
8.39000 294.000
8.43500 291.000
8.48000 275.000
8.52500 280.000
8.57000 260.000
8.61500 263.000
8.66000 218.000
8.70500 242.000
8.75000 229.000
8.79500 247.000
8.84000 257.000
8.88500 237.000
8.93000 283.000
8.97500 267.000
9.02000 267.000
9.06500 244.000
9.11000 263.000
9.15500 236.000
9.20000 272.000
9.24500 245.000
9.29000 242.000
9.33500 249.000
9.38000 244.000
9.42500 267.000
9.47000 294.000
9.51500 284.000
9.56000 320.000
9.60500 346.000
9.65000 430.000
9.69500 519.000
9.74000 582.000
9.78500 587.000
9.83000 653.000
9.87500 603.000
9.92000 615.000
9.96500 550.000
10.01000 572.000
10.05500 591.000
10.10000 628.000
10.14500 689.000
10.19000 769.000
10.23500 849.000
10.28000 933.000
10.32500 1063.000
10.37000 941.000
10.41500 930.000
10.46000 928.000
10.50500 615.000
10.55000 500.000
10.59500 531.000
10.64000 464.000
10.68500 489.000
10.73000 462.000
10.77500 434.000
10.82000 353.000
10.86500 332.000
10.91000 292.000
10.95500 305.000
11.00000 261.000
11.04500 252.000
11.09000 269.000
11.13500 250.000
11.18000 235.000
11.22500 245.000
11.27000 244.000
11.31500 233.000
11.36000 223.000
11.40500 246.000
11.45000 225.000
11.49500 250.000
11.54000 250.000
11.58500 221.000
11.63000 232.000
11.67500 244.000
11.72000 239.000
11.76500 235.000
11.81000 229.000
11.85500 259.000
11.90000 231.000
11.94500 258.000
11.99000 268.000
12.03500 246.000
12.08000 261.000
12.12500 270.000
12.17000 264.000
12.21500 263.000
12.26000 235.000
12.30500 275.000
12.35000 285.000
12.39500 296.000
12.44000 303.000
12.48500 346.000
12.53000 346.000
12.57500 407.000
12.62000 351.000
12.66500 372.000
12.71000 358.000
12.75500 356.000
12.80000 342.000
12.84500 321.000
12.89000 280.000
12.93500 307.000
12.98000 290.000
13.02500 305.000
13.07000 268.000
13.11500 304.000
13.16000 271.000
13.20500 267.000
13.25000 264.000
13.29500 229.000
13.34000 236.000
13.38500 282.000
13.43000 241.000
13.47500 231.000
13.52000 242.000
13.56500 240.000
13.61000 252.000
13.65500 242.000
13.70000 260.000
13.74500 236.000
13.79000 234.000
13.83500 237.000
13.88000 234.000
13.92500 264.000
13.97000 230.000
14.01500 239.000
14.06000 242.000
14.10500 228.000
14.15000 233.000
14.19500 257.000
14.24000 244.000
14.28500 244.000
14.33000 246.000
14.37500 231.000
14.42000 243.000
14.46500 229.000
14.51000 253.000
14.55500 230.000
14.60000 251.000
14.64500 247.000
14.69000 238.000
14.73500 235.000
14.78000 261.000
14.82500 260.000
14.87000 266.000
14.91500 272.000
14.96000 271.000
15.00500 283.000
15.05000 299.000
15.09500 238.000
15.14000 249.000
15.18500 255.000
15.23000 268.000
15.27500 279.000
15.32000 301.000
15.36500 310.000
15.41000 323.000
15.45500 334.000
15.50000 341.000
15.54500 339.000
15.59000 292.000
15.63500 275.000
15.68000 273.000
15.72500 272.000
15.77000 285.000
15.81500 266.000
15.86000 267.000
15.90500 264.000
15.95000 270.000
15.99500 257.000
16.04000 251.000
16.08500 289.000
16.13000 265.000
16.17500 254.000
16.22000 294.000
16.26500 274.000
16.31000 269.000
16.35500 258.000
16.40000 237.000
16.44500 268.000
16.49000 271.000
16.53500 274.000
16.58000 254.000
16.62500 240.000
16.67000 233.000
16.71500 246.000
16.76000 258.000
16.80500 266.000
16.85000 281.000
16.89500 272.000
16.94000 285.000
16.98500 307.000
17.03000 314.000
17.07500 358.000
17.12000 426.000
17.16500 440.000
17.21000 462.000
17.25500 489.000
17.30000 437.000
17.34500 420.000
17.39000 321.000
17.43500 320.000
17.48000 318.000
17.52500 329.000
17.57000 321.000
17.61500 304.000
17.66000 320.000
17.70500 359.000
17.75000 323.000
17.79500 339.000
17.84000 364.000
17.88500 386.000
17.93000 450.000
17.97500 430.000
18.02000 416.000
18.06500 368.000
18.11000 362.000
18.15500 333.000
18.20000 302.000
18.24500 308.000
18.29000 298.000
18.33500 308.000
18.38000 317.000
18.42500 304.000
18.47000 284.000
18.51500 321.000
18.56000 344.000
18.60500 312.000
18.65000 335.000
18.69500 368.000
18.74000 497.000
18.78500 430.000
18.83000 357.000
18.87500 315.000
18.92000 305.000
18.96500 325.000
19.01000 311.000
19.05500 363.000
19.10000 343.000
19.14500 357.000
19.19000 382.000
19.23500 475.000
19.28000 553.000
19.32500 367.000
19.37000 346.000
19.41500 345.000
19.46000 331.000
19.50500 340.000
19.55000 354.000
19.59500 334.000
19.64000 336.000
19.68500 381.000
19.73000 394.000
19.77500 366.000
19.82000 339.000
19.86500 349.000
19.91000 301.000
19.95500 284.000
20.00000 288.000
20.04500 275.000
20.09000 251.000
20.13500 264.000
20.18000 270.000
20.22500 290.000
20.27000 244.000
20.31500 253.000
20.36000 248.000
20.40500 268.000
20.45000 284.000
20.49500 256.000
20.54000 275.000
20.58500 296.000
20.63000 268.000
20.67500 277.000
20.72000 270.000
20.76500 263.000
20.81000 279.000
20.85500 271.000
20.90000 292.000
20.94500 283.000
20.99000 278.000
21.03500 259.000
21.08000 253.000
21.12500 276.000
21.17000 259.000
21.21500 244.000
21.26000 249.000
21.30500 267.000
21.35000 264.000
21.39500 264.000
21.44000 275.000
21.48500 272.000
21.53000 252.000
21.57500 259.000
21.62000 270.000
21.66500 245.000
21.71000 279.000
21.75500 257.000
21.80000 259.000
21.84500 280.000
21.89000 264.000
21.93500 265.000
21.98000 266.000
22.02500 275.000
22.07000 245.000
22.11500 271.000
22.16000 263.000
22.20500 249.000
22.25000 246.000
22.29500 245.000
22.34000 262.000
22.38500 269.000
22.43000 249.000
22.47500 239.000
22.52000 247.000
22.56500 266.000
22.61000 273.000
22.65500 250.000
22.70000 257.000
22.74500 249.000
22.79000 247.000
22.83500 264.000
22.88000 239.000
22.92500 251.000
22.97000 247.000
23.01500 248.000
23.06000 253.000
23.10500 288.000
23.15000 278.000
23.19500 270.000
23.24000 243.000
23.28500 273.000
23.33000 256.000
23.37500 257.000
23.42000 271.000
23.46500 288.000
23.51000 286.000
23.55500 271.000
23.60000 264.000
23.64500 286.000
23.69000 269.000
23.73500 254.000
23.78000 260.000
23.82500 287.000
23.87000 277.000
23.91500 254.000
23.96000 260.000
24.00500 289.000
24.05000 274.000
24.09500 309.000
24.14000 314.000
24.18500 310.000
24.23000 334.000
24.27500 337.000
24.32000 373.000
24.36500 381.000
24.41000 404.000
24.45500 422.000
24.50000 487.000
24.54500 577.000
24.59000 525.000
24.63500 479.000
24.68000 483.000
24.72500 481.000
24.77000 481.000
24.81500 491.000
24.86000 507.000
24.90500 506.000
24.95000 526.000
24.99500 531.000
25.04000 502.000
25.08500 549.000
25.13000 492.000
25.17500 519.000
25.22000 503.000
25.26500 491.000
25.31000 472.000
25.35500 435.000
25.40000 429.000
25.44500 439.000
25.49000 460.000
25.53500 462.000
25.58000 445.000
25.62500 454.000
25.67000 484.000
25.71500 526.000
25.76000 537.000
25.80500 654.000
25.85000 728.000
25.89500 663.000
25.94000 734.000
25.98500 763.000
26.03000 809.000
26.07500 896.000
26.12000 952.000
26.16500 943.000
26.21000 855.000
26.25500 911.000
26.30000 843.000
26.34500 784.000
26.39000 756.000
26.43500 756.000
26.48000 780.000
26.52500 833.000
26.57000 815.000
26.61500 990.000
26.66000 910.000
26.70500 718.000
26.75000 659.000
26.79500 703.000
26.84000 645.000
26.88500 704.000
26.93000 682.000
26.97500 676.000
27.02000 679.000
27.06500 705.000
27.11000 729.000
27.15500 722.000
27.20000 716.000
27.24500 717.000
27.29000 740.000
27.33500 738.000
27.38000 751.000
27.42500 760.000
27.47000 742.000
27.51500 784.000
27.56000 902.000
27.60500 1097.000
27.65000 1080.000
27.69500 962.000
27.74000 906.000
27.78500 887.000
27.83000 847.000
27.87500 813.000
27.92000 836.000
27.96500 767.000
28.01000 789.000
28.05500 786.000
28.10000 809.000
28.14500 778.000
28.19000 800.000
28.23500 792.000
28.28000 821.000
28.32500 820.000
28.37000 829.000
28.41500 779.000
28.46000 807.000
28.50500 737.000
28.55000 697.000
28.59500 692.000
28.64000 643.000
28.68500 612.000
28.73000 565.000
28.77500 541.000
28.82000 466.000
28.86500 445.000
28.91000 447.000
28.95500 414.000
29.00000 424.000
29.04500 424.000
29.09000 392.000
29.13500 421.000
29.18000 405.000
29.22500 425.000
29.27000 441.000
29.31500 422.000
29.36000 381.000
29.40500 352.000
29.45000 361.000
29.49500 374.000
29.54000 357.000
29.58500 343.000
29.63000 365.000
29.67500 352.000
29.72000 339.000
29.76500 328.000
29.81000 329.000
29.85500 309.000
29.90000 361.000
29.94500 333.000
29.99000 322.000
30.03500 313.000
30.08000 308.000
30.12500 346.000
30.17000 342.000
30.21500 341.000
30.26000 339.000
30.30500 350.000
30.35000 373.000
30.39500 417.000
30.44000 567.000
30.48500 659.000
30.53000 519.000
30.57500 459.000
30.62000 401.000
30.66500 401.000
30.71000 388.000
30.75500 356.000
30.80000 410.000
30.84500 368.000
30.89000 389.000
30.93500 366.000
30.98000 386.000
31.02500 346.000
31.07000 360.000
31.11500 338.000
31.16000 341.000
31.20500 336.000
31.25000 340.000
31.29500 341.000
31.34000 331.000
31.38500 304.000
31.43000 302.000
31.47500 324.000
31.52000 302.000
31.56500 299.000
31.61000 310.000
31.65500 329.000
31.70000 298.000
31.74500 266.000
31.79000 248.000
31.83500 257.000
31.88000 254.000
31.92500 218.000
31.97000 261.000
32.01500 279.000
32.06000 285.000
32.10500 236.000
32.15000 281.000
32.19500 237.000
32.24000 252.000
32.28500 250.000
32.33000 208.000
32.37500 246.000
32.42000 246.000
32.46500 250.000
32.51000 230.000
32.55500 253.000
32.60000 259.000
32.64500 247.000
32.69000 240.000
32.73500 248.000
32.78000 230.000
32.82500 235.000
32.87000 225.000
32.91500 213.000
32.96000 213.000
33.00500 238.000
33.05000 202.000
33.09500 238.000
33.14000 219.000
33.18500 212.000
33.23000 211.000
33.27500 190.000
33.32000 202.000
33.36500 193.000
33.41000 204.000
33.45500 208.000
33.50000 206.000
33.54500 216.000
33.59000 224.000
33.63500 216.000
33.68000 230.000
33.72500 247.000
33.77000 207.000
33.81500 206.000
33.86000 207.000
33.90500 226.000
33.95000 217.000
33.99500 235.000
34.04000 220.000
34.08500 208.000
34.13000 215.000
34.17500 226.000
34.22000 214.000
34.26500 231.000
34.31000 226.000
34.35500 237.000
34.40000 217.000
34.44500 223.000
34.49000 235.000
34.53500 215.000
34.58000 228.000
34.62500 203.000
34.67000 202.000
34.71500 189.000
34.76000 215.000
34.80500 219.000
34.85000 223.000
34.89500 208.000
34.94000 207.000
34.98500 215.000
35.03000 227.000
35.07500 177.000
35.12000 224.000
35.16500 218.000
35.21000 188.000
35.25500 188.000
35.30000 189.000
35.34500 189.000
35.39000 208.000
35.43500 203.000
35.48000 188.000
35.52500 171.000
35.57000 177.000
35.61500 193.000
35.66000 187.000
35.70500 180.000
35.75000 232.000
35.79500 229.000
35.84000 254.000
35.88500 217.000
35.93000 217.000
35.97500 213.000
36.02000 217.000
36.06500 206.000
36.11000 233.000
36.15500 261.000
36.20000 279.000
36.24500 261.000
36.29000 294.000
36.33500 296.000
36.38000 278.000
36.42500 292.000
36.47000 271.000
36.51500 273.000
36.56000 257.000
36.60500 231.000
36.65000 234.000
36.69500 247.000
36.74000 199.000
36.78500 220.000
36.83000 209.000
36.87500 204.000
36.92000 215.000
36.96500 174.000
37.01000 199.000
37.05500 187.000
37.10000 208.000
37.14500 171.000
37.19000 197.000
37.23500 172.000
37.28000 172.000
37.32500 187.000
37.37000 185.000
37.41500 189.000
37.46000 209.000
37.50500 164.000
37.55000 208.000
37.59500 218.000
37.64000 189.000
37.68500 216.000
37.73000 204.000
37.77500 211.000
37.82000 199.000
37.86500 213.000
37.91000 195.000
37.95500 188.000
38.00000 178.000
38.04500 181.000
38.09000 169.000
38.13500 154.000
38.18000 150.000
38.22500 149.000
38.27000 163.000
38.31500 169.000
38.36000 176.000
38.40500 181.000
38.45000 167.000
38.49500 166.000
38.54000 176.000
38.58500 194.000
38.63000 181.000
38.67500 188.000
38.72000 181.000
38.76500 199.000
38.81000 229.000
38.85500 238.000
38.90000 179.000
38.94500 176.000
38.99000 165.000
39.03500 204.000
39.08000 198.000
39.12500 170.000
39.17000 176.000
39.21500 171.000
39.26000 170.000
39.30500 145.000
39.35000 166.000
39.39500 162.000
39.44000 163.000
39.48500 180.000
39.53000 171.000
39.57500 155.000
39.62000 167.000
39.66500 181.000
39.71000 188.000
39.75500 190.000
39.80000 186.000
39.84500 197.000
39.89000 209.000
39.93500 237.000
39.98000 218.000
40.02500 220.000
40.07000 241.000
40.11500 201.000
40.16000 207.000
40.20500 185.000
40.25000 193.000
40.29500 176.000
40.34000 172.000
40.38500 181.000
40.43000 180.000
40.47500 178.000
40.52000 143.000
40.56500 175.000
40.61000 176.000
40.65500 161.000
40.70000 160.000
40.74500 181.000
40.79000 202.000
40.83500 198.000
40.88000 176.000
40.92500 163.000
40.97000 160.000
41.01500 156.000
41.06000 148.000
41.10500 168.000
41.15000 151.000
41.19500 127.000
41.24000 184.000
41.28500 162.000
41.33000 169.000
41.37500 152.000
41.42000 130.000
41.46500 134.000
41.51000 143.000
41.55500 144.000
41.60000 157.000
41.64500 148.000
41.69000 167.000
41.73500 163.000
41.78000 157.000
41.82500 157.000
41.87000 148.000
41.91500 132.000
41.96000 155.000
42.00500 158.000
42.05000 154.000
42.09500 156.000
42.14000 165.000
42.18500 155.000
42.23000 175.000
42.27500 146.000
42.32000 148.000
42.36500 150.000
42.41000 154.000
42.45500 146.000
42.50000 156.000
42.54500 139.000
42.59000 143.000
42.63500 156.000
42.68000 128.000
42.72500 147.000
42.77000 136.000
42.81500 153.000
42.86000 145.000
42.90500 139.000
42.95000 138.000
42.99500 127.000
43.04000 130.000
43.08500 157.000
43.13000 128.000
43.17500 145.000
43.22000 137.000
43.26500 119.000
43.31000 137.000
43.35500 145.000
43.40000 140.000
43.44500 127.000
43.49000 140.000
43.53500 133.000
43.58000 132.000
43.62500 138.000
43.67000 136.000
43.71500 130.000
43.76000 134.000
43.80500 133.000
43.85000 142.000
43.89500 117.000
43.94000 123.000
43.98500 136.000
44.03000 116.000
44.07500 128.000
44.12000 132.000
44.16500 128.000
44.21000 140.000
44.25500 139.000
44.30000 117.000
44.34500 135.000
44.39000 147.000
44.43500 131.000
44.48000 137.000
44.52500 150.000
44.57000 120.000
44.61500 128.000
44.66000 139.000
44.70500 140.000
44.75000 122.000
44.79500 128.000
44.84000 122.000
44.88500 118.000
44.93000 120.000
44.97500 124.000
45.02000 132.000
45.06500 128.000
45.11000 133.000
45.15500 117.000
45.20000 124.000
45.24500 114.000
45.29000 111.000
45.33500 115.000
45.38000 128.000
45.42500 138.000
45.47000 154.000
45.51500 146.000
45.56000 120.000
45.60500 138.000
45.65000 126.000
45.69500 137.000
45.74000 128.000
45.78500 140.000
45.83000 134.000
45.87500 137.000
45.92000 143.000
45.96500 111.000
46.01000 129.000
46.05500 145.000
46.10000 126.000
46.14500 120.000
46.19000 114.000
46.23500 150.000
46.28000 142.000
46.32500 151.000
46.37000 143.000
46.41500 132.000
46.46000 126.000
46.50500 124.000
46.55000 133.000
46.59500 141.000
46.64000 146.000
46.68500 124.000
46.73000 131.000
46.77500 139.000
46.82000 153.000
46.86500 137.000
46.91000 134.000
46.95500 159.000
47.00000 146.000
47.04500 163.000
47.09000 156.000
47.13500 156.000
47.18000 159.000
47.22500 155.000
47.27000 145.000
47.31500 154.000
47.36000 147.000
47.40500 146.000
47.45000 149.000
47.49500 150.000
47.54000 147.000
47.58500 139.000
47.63000 120.000
47.67500 158.000
47.72000 139.000
47.76500 169.000
47.81000 153.000
47.85500 148.000
47.90000 149.000
47.94500 150.000
47.99000 131.000
48.03500 124.000
48.08000 130.000
48.12500 131.000
48.17000 127.000
48.21500 120.000
48.26000 122.000
48.30500 118.000
48.35000 133.000
48.39500 141.000
48.44000 143.000
48.48500 143.000
48.53000 129.000
48.57500 120.000
48.62000 130.000
48.66500 121.000
48.71000 128.000
48.75500 143.000
48.80000 130.000
48.84500 142.000
48.89000 113.000
48.93500 125.000
48.98000 125.000
49.02500 146.000
49.07000 138.000
49.11500 144.000
49.16000 134.000
49.20500 123.000
49.25000 128.000
49.29500 147.000
49.34000 157.000
49.38500 138.000
49.43000 142.000
49.47500 128.000
49.52000 129.000
49.56500 128.000
49.61000 143.000
49.65500 142.000
49.70000 133.000
49.74500 152.000
49.79000 146.000
49.83500 149.000
49.88000 155.000
49.92500 130.000
49.97000 159.000
50.01500 142.000
50.06000 158.000
50.10500 138.000
50.15000 147.000
50.19500 149.000
50.24000 154.000
50.28500 146.000
50.33000 141.000
50.37500 140.000
50.42000 149.000
50.46500 128.000
50.51000 146.000
50.55500 143.000
50.60000 145.000
50.64500 128.000
50.69000 133.000
50.73500 146.000
50.78000 143.000
50.82500 121.000
50.87000 135.000
50.91500 131.000
50.96000 129.000
51.00500 163.000
51.05000 123.000
51.09500 123.000
51.14000 135.000
51.18500 124.000
51.23000 136.000
51.27500 123.000
51.32000 133.000
51.36500 130.000
51.41000 121.000
51.45500 123.000
51.50000 132.000
51.54500 126.000
51.59000 125.000
51.63500 127.000
51.68000 120.000
51.72500 148.000
51.77000 116.000
51.81500 120.000
51.86000 119.000
51.90500 130.000
51.95000 124.000
51.99500 137.000
52.04000 139.000
52.08500 131.000
52.13000 122.000
52.17500 132.000
52.22000 122.000
52.26500 126.000
52.31000 135.000
52.35500 130.000
52.40000 124.000
52.44500 125.000
52.49000 114.000
52.53500 127.000
52.58000 120.000
52.62500 138.000
52.67000 121.000
52.71500 120.000
52.76000 125.000
52.80500 130.000
52.85000 136.000
52.89500 125.000
52.94000 125.000
52.98500 126.000
53.03000 123.000
53.07500 126.000
53.12000 122.000
53.16500 142.000
53.21000 131.000
53.25500 116.000
53.30000 116.000
53.34500 136.000
53.39000 135.000
53.43500 124.000
53.48000 151.000
53.52500 129.000
53.57000 113.000
53.61500 142.000
53.66000 132.000
53.70500 151.000
53.75000 138.000
53.79500 137.000
53.84000 126.000
53.88500 131.000
53.93000 133.000
53.97500 167.000
54.02000 164.000
54.06500 136.000
54.11000 143.000
54.15500 143.000
54.20000 141.000
54.24500 127.000
54.29000 117.000
54.33500 134.000
54.38000 117.000
54.42500 135.000
54.47000 127.000
54.51500 143.000
54.56000 124.000
54.60500 158.000
54.65000 138.000
54.69500 147.000
54.74000 133.000
54.78500 154.000
54.83000 139.000
54.87500 136.000
54.92000 148.000
54.96500 155.000
55.01000 144.000
55.05500 158.000
55.10000 161.000
55.14500 146.000
55.19000 137.000
55.23500 122.000
55.28000 150.000
55.32500 133.000
55.37000 145.000
55.41500 129.000
55.46000 128.000
55.50500 126.000
55.55000 127.000
55.59500 135.000
55.64000 141.000
55.68500 145.000
55.73000 164.000
55.77500 140.000
55.82000 163.000
55.86500 120.000
55.91000 145.000
55.95500 126.000
56.00000 152.000
56.04500 138.000
56.09000 141.000
56.13500 131.000
56.18000 136.000
56.22500 144.000
56.27000 107.000
56.31500 119.000
56.36000 130.000
56.40500 131.000
56.45000 105.000
56.49500 122.000
56.54000 137.000
56.58500 115.000
56.63000 141.000
56.67500 102.000
56.72000 129.000
56.76500 111.000
56.81000 132.000
56.85500 140.000
56.90000 111.000
56.94500 119.000
56.99000 97.000
57.03500 125.000
57.08000 101.000
57.12500 112.000
57.17000 112.000
57.21500 100.000
57.26000 116.000
57.30500 109.000
57.35000 113.000
57.39500 115.000
57.44000 115.000
57.48500 104.000
57.53000 100.000
57.57500 114.000
57.62000 131.000
57.66500 99.000
57.71000 105.000
57.75500 108.000
57.80000 110.000
57.84500 110.000
57.89000 108.000
57.93500 129.000
57.98000 123.000
58.02500 128.000
58.07000 125.000
58.11500 114.000
58.16000 113.000
58.20500 117.000
58.25000 115.000
58.29500 118.000
58.34000 115.000
58.38500 120.000
58.43000 107.000
58.47500 120.000
58.52000 134.000
58.56500 110.000
58.61000 124.000
58.65500 108.000
58.70000 128.000
58.74500 111.000
58.79000 104.000
58.83500 107.000
58.88000 110.000
58.92500 101.000
58.97000 96.000
59.01500 96.000
59.06000 118.000
59.10500 116.000
59.15000 110.000
59.19500 93.000
59.24000 107.000
59.28500 123.000
59.33000 101.000
59.37500 98.000
59.42000 115.000
59.46500 106.000
59.51000 103.000
59.55500 98.000
59.60000 107.000
59.64500 120.000
59.69000 110.000
59.73500 107.000
59.78000 113.000
59.82500 103.000
59.87000 125.000
59.91500 116.000
59.96000 105.000
60.00500 100.000
60.05000 84.000
60.09500 113.000
60.14000 119.000
60.18500 110.000
60.23000 109.000
60.27500 110.000
60.32000 113.000
60.36500 108.000
60.41000 106.000
60.45500 104.000
60.50000 104.000
60.54500 106.000
60.59000 103.000
60.63500 104.000
60.68000 93.000
60.72500 101.000
60.77000 97.000
60.81500 101.000
60.86000 92.000
60.90500 90.000
60.95000 101.000
60.99500 94.000
61.04000 113.000
61.08500 98.000
61.13000 104.000
61.17500 107.000
61.22000 101.000
61.26500 100.000
61.31000 104.000
61.35500 84.000
61.40000 109.000
61.44500 104.000
61.49000 101.000
61.53500 98.000
61.58000 116.000
61.62500 94.000
61.67000 119.000
61.71500 92.000
61.76000 121.000
61.80500 99.000
61.85000 100.000
61.89500 104.000
61.94000 106.000
61.98500 103.000