File: ISoD/xrd_data/HSC094_gew_range_1.xy
2.00000 6.000
2.04500 4.000
2.09000 1.000
2.13500 2.000
2.18000 2.000
2.22500 3.000
2.27000 0.000
2.31500 1.000
2.36000 4.000
2.40500 2.000
2.45000 4.000
2.49500 5.000
2.54000 5.000
2.58500 5.000
2.63000 4.000
2.67500 4.000
2.72000 5.000
2.76500 2.000
2.81000 1.000
2.85500 3.000
2.90000 1.000
2.94500 3.000
2.99000 6.000
3.03500 20.000
3.08000 49.000
3.12500 126.000
3.17000 199.000
3.21500 229.000
3.26000 240.000
3.30500 215.000
3.35000 220.000
3.39500 208.000
3.44000 205.000
3.48500 202.000
3.53000 193.000
3.57500 187.000
3.62000 165.000
3.66500 193.000
3.71000 198.000
3.75500 185.000
3.80000 183.000
3.84500 184.000
3.89000 173.000
3.93500 180.000
3.98000 189.000
4.02500 189.000
4.07000 167.000
4.11500 183.000
4.16000 183.000
4.20500 170.000
4.25000 183.000
4.29500 204.000
4.34000 163.000
4.38500 182.000
4.43000 192.000
4.47500 170.000
4.52000 173.000
4.56500 169.000
4.61000 172.000
4.65500 188.000
4.70000 173.000
4.74500 154.000
4.79000 173.000
4.83500 155.000
4.88000 157.000
4.92500 190.000
4.97000 177.000
5.01500 171.000
5.06000 200.000
5.10500 179.000
5.15000 168.000
5.19500 182.000
5.24000 178.000
5.28500 160.000
5.33000 156.000
5.37500 175.000
5.42000 190.000
5.46500 184.000
5.51000 169.000
5.55500 181.000
5.60000 177.000
5.64500 173.000
5.69000 174.000
5.73500 189.000
5.78000 186.000
5.82500 199.000
5.87000 179.000
5.91500 198.000
5.96000 200.000
6.00500 174.000
6.05000 164.000
6.09500 186.000
6.14000 174.000
6.18500 175.000
6.23000 179.000
6.27500 188.000
6.32000 188.000
6.36500 182.000
6.41000 159.000
6.45500 177.000
6.50000 189.000
6.54500 179.000
6.59000 196.000
6.63500 198.000
6.68000 187.000
6.72500 194.000
6.77000 188.000
6.81500 205.000
6.86000 185.000
6.90500 192.000
6.95000 183.000
6.99500 202.000
7.04000 191.000
7.08500 215.000
7.13000 200.000
7.17500 201.000
7.22000 169.000
7.26500 191.000
7.31000 194.000
7.35500 183.000
7.40000 212.000
7.44500 199.000
7.49000 199.000
7.53500 198.000
7.58000 209.000
7.62500 206.000
7.67000 217.000
7.71500 235.000
7.76000 221.000
7.80500 207.000
7.85000 199.000
7.89500 206.000
7.94000 195.000
7.98500 212.000
8.03000 208.000
8.07500 191.000
8.12000 191.000
8.16500 211.000
8.21000 206.000
8.25500 220.000
8.30000 218.000
8.34500 244.000
8.39000 216.000
8.43500 217.000
8.48000 247.000
8.52500 277.000
8.57000 261.000
8.61500 251.000
8.66000 253.000
8.70500 335.000
8.75000 366.000
8.79500 473.000
8.84000 615.000
8.88500 938.000
8.93000 1370.000
8.97500 2372.000
9.02000 3179.000
9.06500 1037.000
9.11000 439.000
9.15500 336.000
9.20000 249.000
9.24500 249.000
9.29000 224.000
9.33500 264.000
9.38000 222.000
9.42500 224.000
9.47000 217.000
9.51500 213.000
9.56000 219.000
9.60500 224.000
9.65000 216.000
9.69500 226.000
9.74000 224.000
9.78500 195.000
9.83000 220.000
9.87500 226.000
9.92000 243.000
9.96500 211.000
10.01000 202.000
10.05500 194.000
10.10000 247.000
10.14500 220.000
10.19000 246.000
10.23500 296.000
10.28000 318.000
10.32500 369.000
10.37000 464.000
10.41500 677.000
10.46000 1066.000
10.50500 1658.000
10.55000 2710.000
10.59500 1627.000
10.64000 584.000
10.68500 386.000
10.73000 299.000
10.77500 323.000
10.82000 358.000
10.86500 238.000
10.91000 248.000
10.95500 239.000
11.00000 228.000
11.04500 223.000
11.09000 245.000
11.13500 235.000
11.18000 237.000
11.22500 267.000
11.27000 291.000
11.31500 305.000
11.36000 308.000
11.40500 388.000
11.45000 472.000
11.49500 675.000
11.54000 942.000
11.58500 1578.000
11.63000 2693.000
11.67500 4658.000
11.72000 3396.000
11.76500 1258.000
11.81000 726.000
11.85500 536.000
11.90000 470.000
11.94500 370.000
11.99000 351.000
12.03500 302.000
12.08000 271.000
12.12500 287.000
12.17000 264.000
12.21500 243.000
12.26000 243.000
12.30500 262.000
12.35000 262.000
12.39500 268.000
12.44000 234.000
12.48500 212.000
12.53000 226.000
12.57500 239.000
12.62000 211.000
12.66500 227.000
12.71000 225.000
12.75500 275.000
12.80000 280.000
12.84500 391.000
12.89000 586.000
12.93500 886.000
12.98000 1812.000
13.02500 2991.000
13.07000 849.000
13.11500 446.000
13.16000 353.000
13.20500 324.000
13.25000 414.000
13.29500 558.000
13.34000 1014.000
13.38500 1697.000
13.43000 955.000
13.47500 302.000
13.52000 244.000
13.56500 240.000
13.61000 216.000
13.65500 201.000
13.70000 207.000
13.74500 211.000
13.79000 213.000
13.83500 193.000
13.88000 223.000
13.92500 250.000
13.97000 280.000
14.01500 278.000
14.06000 237.000
14.10500 211.000
14.15000 204.000
14.19500 218.000
14.24000 219.000
14.28500 205.000
14.33000 188.000
14.37500 222.000
14.42000 180.000
14.46500 203.000
14.51000 209.000
14.55500 209.000
14.60000 221.000
14.64500 220.000
14.69000 249.000
14.73500 252.000
14.78000 324.000
14.82500 425.000
14.87000 698.000
14.91500 1191.000
14.96000 2599.000
15.00500 3871.000
15.05000 892.000
15.09500 364.000
15.14000 266.000
15.18500 230.000
15.23000 221.000
15.27500 243.000
15.32000 232.000
15.36500 260.000
15.41000 265.000
15.45500 268.000
15.50000 231.000
15.54500 217.000
15.59000 233.000
15.63500 265.000
15.68000 293.000
15.72500 356.000
15.77000 276.000
15.81500 238.000
15.86000 248.000
15.90500 276.000
15.95000 342.000
15.99500 463.000
16.04000 682.000
16.08500 907.000
16.13000 584.000
16.17500 373.000
16.22000 306.000
16.26500 278.000
16.31000 276.000
16.35500 251.000
16.40000 243.000
16.44500 260.000
16.49000 310.000
16.53500 400.000
16.58000 657.000
16.62500 1102.000
16.67000 1776.000
16.71500 946.000
16.76000 443.000
16.80500 338.000
16.85000 261.000
16.89500 235.000
16.94000 247.000
16.98500 224.000
17.03000 241.000
17.07500 223.000
17.12000 206.000
17.16500 212.000
17.21000 209.000
17.25500 215.000
17.30000 229.000
17.34500 222.000
17.39000 204.000
17.43500 194.000
17.48000 208.000
17.52500 225.000
17.57000 223.000
17.61500 243.000
17.66000 238.000
17.70500 231.000
17.75000 248.000
17.79500 237.000
17.84000 279.000
17.88500 347.000
17.93000 407.000
17.97500 582.000
18.02000 996.000
18.06500 1654.000
18.11000 1820.000
18.15500 974.000
18.20000 512.000
18.24500 372.000
18.29000 302.000
18.33500 274.000
18.38000 257.000
18.42500 252.000
18.47000 261.000
18.51500 300.000
18.56000 228.000
18.60500 230.000
18.65000 246.000
18.69500 238.000
18.74000 243.000
18.78500 226.000
18.83000 230.000
18.87500 268.000
18.92000 239.000
18.96500 214.000
19.01000 213.000
19.05500 230.000
19.10000 220.000
19.14500 215.000
19.19000 210.000
19.23500 225.000
19.28000 219.000
19.32500 210.000
19.37000 241.000
19.41500 248.000
19.46000 330.000
19.50500 478.000
19.55000 1037.000
19.59500 2438.000
19.64000 2111.000
19.68500 483.000
19.73000 280.000
19.77500 254.000
19.82000 236.000
19.86500 227.000
19.91000 244.000
19.95500 237.000
20.00000 228.000
20.04500 219.000
20.09000 249.000
20.13500 236.000
20.18000 282.000
20.22500 330.000
20.27000 524.000
20.31500 901.000
20.36000 410.000
20.40500 267.000
20.45000 253.000
20.49500 255.000
20.54000 247.000
20.58500 298.000
20.63000 305.000
20.67500 377.000
20.72000 375.000
20.76500 282.000
20.81000 304.000
20.85500 292.000
20.90000 305.000
20.94500 342.000
20.99000 389.000
21.03500 500.000
21.08000 682.000
21.12500 924.000
21.17000 809.000
21.21500 885.000
21.26000 682.000
21.30500 599.000
21.35000 597.000
21.39500 744.000
21.44000 1054.000
21.48500 1718.000
21.53000 2937.000
21.57500 5037.000
21.62000 5199.000
21.66500 2339.000
21.71000 1164.000
21.75500 759.000
21.80000 663.000
21.84500 490.000
21.89000 471.000
21.93500 425.000
21.98000 372.000
22.02500 374.000
22.07000 356.000
22.11500 331.000
22.16000 313.000
22.20500 323.000
22.25000 321.000
22.29500 366.000
22.34000 383.000
22.38500 456.000
22.43000 661.000
22.47500 881.000
22.52000 577.000
22.56500 371.000
22.61000 329.000
22.65500 304.000
22.70000 286.000
22.74500 342.000
22.79000 411.000
22.83500 490.000
22.88000 370.000
22.92500 302.000
22.97000 269.000
23.01500 245.000
23.06000 242.000
23.10500 233.000
23.15000 235.000
23.19500 263.000
23.24000 261.000
23.28500 297.000
23.33000 308.000
23.37500 394.000
23.42000 459.000
23.46500 447.000
23.51000 441.000
23.55500 336.000
23.60000 281.000
23.64500 261.000
23.69000 250.000
23.73500 241.000
23.78000 237.000
23.82500 241.000
23.87000 240.000
23.91500 235.000
23.96000 216.000
24.00500 232.000
24.05000 251.000
24.09500 245.000
24.14000 221.000
24.18500 253.000
24.23000 238.000
24.27500 226.000
24.32000 206.000
24.36500 230.000
24.41000 225.000
24.45500 254.000
24.50000 231.000
24.54500 234.000
24.59000 234.000
24.63500 238.000
24.68000 240.000
24.72500 267.000
24.77000 235.000
24.81500 230.000
24.86000 233.000
24.90500 243.000
24.95000 214.000
24.99500 233.000
25.04000 222.000
25.08500 235.000
25.13000 212.000
25.17500 215.000
25.22000 210.000
25.26500 227.000
25.31000 231.000
25.35500 205.000
25.40000 213.000
25.44500 232.000
25.49000 220.000
25.53500 218.000
25.58000 235.000
25.62500 260.000
25.67000 226.000
25.71500 209.000
25.76000 216.000
25.80500 227.000
25.85000 237.000
25.89500 249.000
25.94000 241.000
25.98500 235.000
26.03000 240.000
26.07500 273.000
26.12000 324.000
26.16500 574.000
26.21000 834.000
26.25500 523.000
26.30000 302.000
26.34500 271.000
26.39000 267.000
26.43500 262.000
26.48000 270.000
26.52500 292.000
26.57000 264.000
26.61500 286.000
26.66000 321.000
26.70500 413.000
26.75000 679.000
26.79500 640.000
26.84000 436.000
26.88500 429.000
26.93000 399.000
26.97500 410.000
27.02000 446.000
27.06500 523.000
27.11000 795.000
27.15500 965.000
27.20000 586.000
27.24500 358.000
27.29000 321.000
27.33500 305.000
27.38000 317.000
27.42500 342.000
27.47000 474.000
27.51500 768.000
27.56000 1525.000
27.60500 1881.000
27.65000 787.000
27.69500 499.000
27.74000 439.000
27.78500 467.000
27.83000 432.000
27.87500 347.000
27.92000 304.000
27.96500 312.000
28.01000 369.000
28.05500 455.000
28.10000 568.000
28.14500 337.000
28.19000 259.000
28.23500 269.000
28.28000 264.000
28.32500 261.000
28.37000 263.000
28.41500 280.000
28.46000 349.000
28.50500 519.000
28.55000 895.000
28.59500 1193.000
28.64000 705.000
28.68500 490.000
28.73000 498.000
28.77500 451.000
28.82000 465.000
28.86500 387.000
28.91000 351.000
28.95500 302.000
29.00000 319.000
29.04500 293.000
29.09000 375.000
29.13500 421.000
29.18000 289.000
29.22500 253.000
29.27000 252.000
29.31500 240.000
29.36000 259.000
29.40500 274.000
29.45000 284.000
29.49500 231.000
29.54000 254.000
29.58500 240.000
29.63000 222.000
29.67500 242.000
29.72000 229.000
29.76500 222.000
29.81000 222.000
29.85500 244.000
29.90000 250.000
29.94500 241.000
29.99000 271.000
30.03500 326.000
30.08000 326.000
30.12500 435.000
30.17000 587.000
30.21500 1035.000
30.26000 1785.000
30.30500 1819.000
30.35000 2108.000
30.39500 1934.000
30.44000 991.000
30.48500 546.000
30.53000 391.000
30.57500 302.000
30.62000 285.000
30.66500 275.000
30.71000 272.000
30.75500 264.000
30.80000 244.000
30.84500 244.000
30.89000 254.000
30.93500 252.000
30.98000 255.000
31.02500 241.000
31.07000 273.000
31.11500 300.000
31.16000 324.000
31.20500 286.000
31.25000 269.000
31.29500 291.000
31.34000 292.000
31.38500 317.000
31.43000 325.000
31.47500 351.000
31.52000 395.000
31.56500 500.000
31.61000 631.000
31.65500 887.000
31.70000 1468.000
31.74500 2018.000
31.79000 2189.000
31.83500 2734.000
31.88000 2408.000
31.92500 1307.000
31.97000 791.000
32.01500 587.000
32.06000 463.000
32.10500 390.000
32.15000 331.000
32.19500 342.000
32.24000 300.000
32.28500 283.000
32.33000 309.000
32.37500 331.000
32.42000 508.000
32.46500 965.000
32.51000 2152.000
32.55500 2522.000
32.60000 979.000
32.64500 561.000
32.69000 513.000
32.73500 479.000
32.78000 338.000
32.82500 312.000
32.87000 271.000
32.91500 232.000
32.96000 242.000
33.00500 232.000
33.05000 197.000
33.09500 227.000
33.14000 235.000
33.18500 238.000
33.23000 253.000
33.27500 318.000
33.32000 249.000
33.36500 234.000
33.41000 213.000
33.45500 254.000
33.50000 368.000
33.54500 571.000
33.59000 292.000
33.63500 260.000
33.68000 290.000
33.72500 272.000
33.77000 244.000
33.81500 213.000
33.86000 224.000
33.90500 208.000
33.95000 182.000
33.99500 212.000
34.04000 200.000
34.08500 193.000
34.13000 182.000
34.17500 186.000
34.22000 173.000
34.26500 185.000
34.31000 170.000
34.35500 202.000
34.40000 189.000
34.44500 172.000
34.49000 181.000
34.53500 171.000
34.58000 184.000
34.62500 175.000
34.67000 170.000
34.71500 170.000
34.76000 193.000
34.80500 173.000
34.85000 207.000
34.89500 181.000
34.94000 233.000
34.98500 269.000
35.03000 333.000
35.07500 514.000
35.12000 454.000
35.16500 287.000
35.21000 261.000
35.25500 245.000
35.30000 265.000
35.34500 271.000
35.39000 332.000
35.43500 412.000
35.48000 664.000
35.52500 1175.000
35.57000 1126.000
35.61500 541.000
35.66000 379.000
35.70500 270.000
35.75000 261.000
35.79500 229.000
35.84000 223.000
35.88500 237.000
35.93000 254.000
35.97500 249.000
36.02000 231.000
36.06500 292.000
36.11000 420.000
36.15500 649.000
36.20000 893.000
36.24500 844.000
36.29000 961.000
36.33500 765.000
36.38000 450.000
36.42500 276.000
36.47000 251.000
36.51500 262.000
36.56000 253.000
36.60500 290.000
36.65000 344.000
36.69500 300.000
36.74000 267.000
36.78500 299.000
36.83000 293.000
36.87500 276.000
36.92000 254.000
36.96500 205.000
37.01000 253.000
37.05500 203.000
37.10000 213.000
37.14500 223.000
37.19000 203.000
37.23500 281.000
37.28000 282.000
37.32500 322.000
37.37000 425.000
37.41500 693.000
37.46000 1066.000
37.50500 920.000
37.55000 544.000
37.59500 420.000
37.64000 412.000
37.68500 468.000
37.73000 553.000
37.77500 466.000
37.82000 320.000
37.86500 265.000
37.91000 221.000
37.95500 190.000
38.00000 190.000
38.04500 205.000
38.09000 180.000
38.13500 196.000
38.18000 191.000
38.22500 247.000
38.27000 249.000
38.31500 230.000
38.36000 202.000
38.40500 242.000
38.45000 231.000
38.49500 289.000
38.54000 250.000
38.58500 223.000
38.63000 181.000
38.67500 172.000
38.72000 167.000
38.76500 173.000
38.81000 157.000
38.85500 159.000
38.90000 156.000
38.94500 165.000
38.99000 166.000
39.03500 157.000
39.08000 135.000
39.12500 188.000
39.17000 168.000
39.21500 162.000
39.26000 195.000
39.30500 183.000
39.35000 185.000
39.39500 221.000
39.44000 233.000
39.48500 181.000
39.53000 175.000
39.57500 207.000
39.62000 204.000
39.66500 206.000
39.71000 259.000
39.75500 308.000
39.80000 403.000
39.84500 470.000
39.89000 358.000
39.93500 395.000
39.98000 319.000
40.02500 235.000
40.07000 185.000
40.11500 159.000
40.16000 171.000
40.20500 170.000
40.25000 170.000
40.29500 169.000
40.34000 181.000
40.38500 208.000
40.43000 227.000
40.47500 262.000
40.52000 214.000
40.56500 203.000
40.61000 200.000
40.65500 195.000
40.70000 240.000
40.74500 236.000
40.79000 364.000
40.83500 513.000
40.88000 566.000
40.92500 598.000
40.97000 636.000
41.01500 430.000
41.06000 264.000
41.10500 229.000
41.15000 203.000
41.19500 215.000
41.24000 280.000
41.28500 314.000
41.33000 290.000
41.37500 234.000
41.42000 198.000
41.46500 203.000
41.51000 226.000
41.55500 222.000
41.60000 204.000
41.64500 214.000
41.69000 258.000
41.73500 321.000
41.78000 367.000
41.82500 422.000
41.87000 506.000
41.91500 485.000
41.96000 450.000
42.00500 472.000
42.05000 434.000
42.09500 313.000
42.14000 257.000
42.18500 254.000
42.23000 292.000
42.27500 275.000
42.32000 275.000
42.36500 287.000
42.41000 263.000
42.45500 236.000
42.50000 230.000
42.54500 270.000
42.59000 361.000
42.63500 581.000
42.68000 735.000
42.72500 652.000
42.77000 698.000
42.81500 998.000
42.86000 835.000
42.90500 527.000
42.95000 390.000
42.99500 321.000
43.04000 293.000
43.08500 324.000
43.13000 316.000
43.17500 308.000
43.22000 309.000
43.26500 260.000
43.31000 326.000
43.35500 440.000
43.40000 820.000
43.44500 1555.000
43.49000 1582.000
43.53500 710.000
43.58000 378.000
43.62500 278.000
43.67000 234.000
43.71500 220.000
43.76000 217.000
43.80500 273.000
43.85000 277.000
43.89500 285.000
43.94000 322.000
43.98500 393.000
44.03000 400.000
44.07500 394.000
44.12000 339.000
44.16500 347.000
44.21000 271.000
44.25500 230.000
44.30000 215.000
44.34500 160.000
44.39000 203.000
44.43500 180.000
44.48000 216.000
44.52500 225.000
44.57000 272.000
44.61500 396.000
44.66000 517.000
44.70500 396.000
44.75000 324.000
44.79500 299.000
44.84000 335.000
44.88500 314.000
44.93000 265.000
44.97500 223.000
45.02000 183.000
45.06500 190.000
45.11000 200.000
45.15500 184.000
45.20000 204.000
45.24500 244.000
45.29000 284.000
45.33500 297.000
45.38000 375.000
45.42500 569.000
45.47000 843.000
45.51500 1085.000
45.56000 876.000
45.60500 548.000
45.65000 461.000
45.69500 351.000
45.74000 279.000
45.78500 272.000
45.83000 268.000
45.87500 286.000
45.92000 290.000
45.96500 301.000
46.01000 254.000
46.05500 248.000
46.10000 251.000
46.14500 275.000
46.19000 259.000
46.23500 256.000
46.28000 235.000
46.32500 224.000
46.37000 222.000
46.41500 219.000
46.46000 279.000
46.50500 290.000
46.55000 252.000
46.59500 269.000
46.64000 369.000
46.68500 477.000
46.73000 535.000
46.77500 599.000
46.82000 619.000
46.86500 690.000
46.91000 551.000
46.95500 437.000
47.00000 394.000
47.04500 271.000
47.09000 270.000
47.13500 250.000
47.18000 240.000
47.22500 212.000
47.27000 193.000
47.31500 170.000
47.36000 220.000
47.40500 230.000
47.45000 340.000
47.49500 457.000
47.54000 637.000
47.58500 578.000
47.63000 342.000
47.67500 258.000
47.72000 233.000
47.76500 216.000
47.81000 238.000
47.85500 257.000
47.90000 297.000
47.94500 373.000
47.99000 536.000
48.03500 555.000
48.08000 427.000
48.12500 384.000
48.17000 413.000
48.21500 372.000
48.26000 389.000
48.30500 422.000
48.35000 381.000
48.39500 370.000
48.44000 344.000
48.48500 378.000
48.53000 410.000
48.57500 374.000
48.62000 353.000
48.66500 430.000
48.71000 493.000
48.75500 526.000
48.80000 412.000
48.84500 289.000
48.89000 264.000
48.93500 275.000
48.98000 258.000
49.02500 229.000
49.07000 204.000
49.11500 175.000
49.16000 196.000
49.20500 178.000
49.25000 244.000
49.29500 424.000
49.34000 473.000
49.38500 289.000
49.43000 197.000
49.47500 150.000
49.52000 150.000
49.56500 165.000
49.61000 153.000
49.65500 178.000
49.70000 192.000
49.74500 197.000
49.79000 209.000
49.83500 299.000
49.88000 425.000
49.92500 460.000
49.97000 420.000
50.01500 368.000
50.06000 331.000
50.10500 267.000
50.15000 240.000
50.19500 204.000
50.24000 224.000
50.28500 212.000
50.33000 206.000
50.37500 231.000
50.42000 219.000
50.46500 222.000
50.51000 222.000
50.55500 242.000
50.60000 270.000
50.64500 295.000
50.69000 334.000
50.73500 316.000
50.78000 276.000
50.82500 286.000
50.87000 287.000
50.91500 409.000
50.96000 611.000
51.00500 489.000
51.05000 302.000
51.09500 233.000
51.14000 192.000
51.18500 176.000
51.23000 173.000
51.27500 174.000
51.32000 195.000
51.36500 179.000
51.41000 178.000
51.45500 167.000
51.50000 175.000
51.54500 176.000
51.59000 178.000
51.63500 169.000
51.68000 192.000
51.72500 215.000
51.77000 237.000
51.81500 236.000
51.86000 226.000
51.90500 233.000
51.95000 234.000
51.99500 238.000
52.04000 212.000
52.08500 171.000
52.13000 147.000
52.17500 187.000
52.22000 148.000
52.26500 176.000
52.31000 151.000
52.35500 151.000
52.40000 151.000
52.44500 150.000
52.49000 157.000
52.53500 182.000
52.58000 208.000
52.62500 225.000
52.67000 249.000
52.71500 312.000
52.76000 354.000
52.80500 456.000
52.85000 388.000
52.89500 309.000
52.94000 258.000
52.98500 263.000
53.03000 229.000
53.07500 261.000
53.12000 235.000
53.16500 255.000
53.21000 219.000
53.25500 218.000
53.30000 195.000
53.34500 201.000
53.39000 178.000
53.43500 199.000
53.48000 185.000
53.52500 171.000
53.57000 159.000
53.61500 135.000
53.66000 164.000
53.70500 160.000
53.75000 163.000
53.79500 178.000
53.84000 152.000
53.88500 176.000
53.93000 187.000
53.97500 164.000
54.02000 156.000
54.06500 154.000
54.11000 152.000
54.15500 157.000
54.20000 163.000
54.24500 163.000
54.29000 169.000
54.33500 201.000
54.38000 204.000
54.42500 230.000
54.47000 265.000
54.51500 310.000
54.56000 344.000
54.60500 507.000
54.65000 454.000
54.69500 362.000
54.74000 344.000
54.78500 361.000
54.83000 338.000
54.87500 354.000
54.92000 359.000
54.96500 360.000
55.01000 371.000
55.05500 320.000
55.10000 309.000
55.14500 339.000
55.19000 461.000
55.23500 654.000
55.28000 743.000
55.32500 533.000
55.37000 589.000
55.41500 893.000
55.46000 706.000
55.50500 373.000
55.55000 326.000
55.59500 327.000
55.64000 275.000
55.68500 219.000
55.73000 202.000
55.77500 187.000
55.82000 199.000
55.86500 208.000
55.91000 207.000
55.95500 224.000
56.00000 216.000
56.04500 271.000
56.09000 285.000
56.13500 295.000
56.18000 298.000
56.22500 252.000
56.27000 269.000
56.31500 257.000
56.36000 229.000
56.40500 250.000
56.45000 262.000
56.49500 272.000
56.54000 288.000
56.58500 314.000
56.63000 295.000
56.67500 342.000
56.72000 309.000
56.76500 297.000
56.81000 309.000
56.85500 296.000
56.90000 274.000
56.94500 261.000
56.99000 270.000
57.03500 241.000
57.08000 201.000
57.12500 237.000
57.17000 235.000
57.21500 233.000
57.26000 240.000
57.30500 258.000
57.35000 248.000
57.39500 251.000
57.44000 210.000
57.48500 206.000
57.53000 197.000
57.57500 196.000
57.62000 238.000
57.66500 210.000
57.71000 197.000
57.75500 202.000
57.80000 198.000
57.84500 174.000
57.89000 187.000
57.93500 199.000
57.98000 211.000
58.02500 260.000
58.07000 305.000
58.11500 322.000
58.16000 330.000
58.20500 284.000
58.25000 280.000
58.29500 257.000
58.34000 251.000
58.38500 245.000
58.43000 266.000
58.47500 230.000
58.52000 214.000
58.56500 197.000
58.61000 210.000
58.65500 217.000
58.70000 197.000
58.74500 198.000
58.79000 191.000
58.83500 196.000
58.88000 203.000
58.92500 222.000
58.97000 202.000
59.01500 165.000
59.06000 156.000
59.10500 139.000
59.15000 146.000
59.19500 149.000
59.24000 156.000
59.28500 184.000
59.33000 164.000
59.37500 194.000
59.42000 241.000
59.46500 255.000
59.51000 285.000
59.55500 274.000
59.60000 256.000
59.64500 253.000
59.69000 220.000
59.73500 225.000
59.78000 192.000
59.82500 193.000
59.87000 214.000
59.91500 262.000
59.96000 265.000
60.00500 285.000
60.05000 264.000
60.09500 311.000
60.14000 390.000
60.18500 464.000
60.23000 375.000
60.27500 292.000
60.32000 262.000
60.36500 220.000
60.41000 205.000
60.45500 193.000
60.50000 190.000
60.54500 199.000
60.59000 177.000
60.63500 168.000
60.68000 162.000
60.72500 164.000
60.77000 145.000
60.81500 156.000
60.86000 165.000
60.90500 177.000
60.95000 209.000
60.99500 250.000
61.04000 286.000
61.08500 240.000
61.13000 211.000
61.17500 212.000
61.22000 238.000
61.26500 237.000
61.31000 264.000
61.35500 275.000
61.40000 268.000
61.44500 279.000
61.49000 262.000
61.53500 178.000
61.58000 177.000
61.62500 180.000
61.67000 157.000
61.71500 148.000
61.76000 165.000
61.80500 160.000
61.85000 159.000
61.89500 199.000
61.94000 215.000
61.98500 237.000