File: ISoD/xrd_data/HSC005III_ranges_combined.xy
2.0 738.0
2.045 751.0
2.09 725.0
2.135 696.0
2.18 639.0
2.225 622.0
2.27 542.0
2.315 541.0
2.36 525.0
2.405 534.0
2.45 501.0
2.495 484.0
2.54 455.0
2.585 457.0
2.63 459.0
2.675 425.0
2.72 437.0
2.765 411.0
2.81 418.0
2.855 412.0
2.9 441.0
2.945 398.0
2.99 409.0
3.035 402.0
3.08 375.0
3.125 372.0
3.17 374.0
3.215 376.0
3.26 383.0
3.305 385.0
3.35 374.0
3.395 347.0
3.44 365.0
3.485 366.0
3.53 338.0
3.575 382.0
3.62 345.0
3.665 358.0
3.71 378.0
3.755 349.0
3.8 350.0
3.845 370.0
3.89 351.0
3.935 346.0
3.98 363.0
4.025 370.0
4.07 313.0
4.115 354.0
4.16 337.0
4.205 344.0
4.25 347.0
4.295 357.0
4.34 366.0
4.385 366.0
4.43 383.0
4.475 371.0
4.52 338.0
4.565 368.0
4.61 368.0
4.655 357.0
4.7 368.0
4.745 375.0
4.79 368.0
4.835 349.0
4.88 374.0
4.925 323.0
4.97 370.0
5.015 344.0
5.06 336.0
5.105 341.0
5.15 380.0
5.195 341.0
5.24 359.0
5.285 373.0
5.33 324.0
5.375 385.0
5.42 352.0
5.465 369.0
5.51 369.0
5.555 349.0
5.6 359.0
5.645 359.0
5.69 359.0
5.735 358.0
5.78 368.0
5.825 351.0
5.87 367.0
5.915 365.0
5.96 387.0
6.005 376.0
6.05 366.0
6.095 333.0
6.14 346.0
6.185 348.0
6.23 347.0
6.275 343.0
6.32 351.0
6.365 360.0
6.41 352.0
6.455 360.0
6.5 368.0
6.545 335.0
6.59 361.0
6.635 339.0
6.68 333.0
6.725 378.0
6.77 338.0
6.815 329.0
6.86 338.0
6.905 355.0
6.95 348.0
6.995 353.0
7.04 338.0
7.085 370.0
7.13 316.0
7.175 333.0
7.22 333.0
7.265 350.0
7.31 348.0
7.355 335.0
7.4 343.0
7.445 313.0
7.49 353.0
7.535 328.0
7.58 353.0
7.625 341.0
7.67 371.0
7.715 335.0
7.76 362.0
7.805 343.0
7.85 359.0
7.895 357.0
7.94 334.0
7.985 358.0
8.03 334.0
8.075 342.0
8.12 333.0
8.165 357.0
8.21 383.0
8.255 336.0
8.3 327.0
8.345 363.0
8.39 336.0
8.435 355.0
8.48 339.0
8.525 301.0
8.57 337.0
8.615 322.0
8.66 342.0
8.705 345.0
8.75 343.0
8.795 337.0
8.84 333.0
8.885 352.0
8.93 326.0
8.975 341.0
9.02 317.0
9.065 343.0
9.11 332.0
9.155 349.0
9.2 355.0
9.245 372.0
9.29 343.0
9.335 346.0
9.38 343.0
9.425 339.0
9.47 338.0
9.515 319.0
9.56 318.0
9.605 357.0
9.65 341.0
9.695 355.0
9.74 342.0
9.785 334.0
9.83 348.0
9.875 343.0
9.92 350.0
9.965 340.0
10.01 342.0
10.055 339.0
10.1 336.0
10.145 317.0
10.19 364.0
10.235 345.0
10.28 314.0
10.325 386.0
10.37 352.0
10.415 323.0
10.46 345.0
10.505 329.0
10.55 327.0
10.595 324.0
10.64 347.0
10.685 343.0
10.73 329.0
10.775 353.0
10.82 335.0
10.865 370.0
10.91 343.0
10.955 341.0
11.0 348.0
11.045 350.0
11.09 370.0
11.135 375.0
11.18 359.0
11.225 375.0
11.27 340.0
11.315 342.0
11.36 327.0
11.405 368.0
11.45 333.0
11.495 348.0
11.54 348.0
11.585 370.0
11.63 347.0
11.675 384.0
11.72 377.0
11.765 457.0
11.81 464.0
11.855 663.0
11.9 951.0
11.945 1663.0
11.99 2834.0
12.035 2293.0
12.08 1915.0
12.125 1375.0
12.17 687.0
12.215 512.0
12.26 459.0
12.305 468.0
12.35 452.0
12.395 418.0
12.44 468.0
12.485 414.0
12.53 420.0
12.575 417.0
12.62 396.0
12.665 400.0
12.71 394.0
12.755 414.0
12.8 417.0
12.845 376.0
12.89 392.0
12.935 391.0
12.98 371.0
13.025 371.0
13.07 390.0
13.115 398.0
13.16 370.0
13.205 364.0
13.25 354.0
13.295 374.0
13.34 367.0
13.385 379.0
13.43 374.0
13.475 393.0
13.52 363.0
13.565 350.0
13.61 350.0
13.655 365.0
13.7 378.0
13.745 360.0
13.79 371.0
13.835 371.0
13.88 365.0
13.925 359.0
13.97 360.0
14.015 348.0
14.06 337.0
14.105 346.0
14.15 397.0
14.195 349.0
14.24 378.0
14.285 357.0
14.33 388.0
14.375 343.0
14.42 369.0
14.465 346.0
14.51 378.0
14.555 348.0
14.6 398.0
14.645 354.0
14.69 377.0
14.735 353.0
14.78 388.0
14.825 372.0
14.87 344.0
14.915 379.0
14.96 342.0
15.005 351.0
15.05 353.0
15.095 364.0
15.14 359.0
15.185 379.0
15.23 414.0
15.275 366.0
15.32 371.0
15.365 373.0
15.41 368.0
15.455 394.0
15.5 372.0
15.545 380.0
15.59 367.0
15.635 366.0
15.68 348.0
15.725 411.0
15.77 361.0
15.815 378.0
15.86 386.0
15.905 401.0
15.95 384.0
15.995 380.0
16.04 377.0
16.085 404.0
16.13 366.0
16.175 395.0
16.22 412.0
16.265 370.0
16.31 384.0
16.355 402.0
16.4 419.0
16.445 382.0
16.49 397.0
16.535 386.0
16.58 383.0
16.625 405.0
16.67 378.0
16.715 399.0
16.76 409.0
16.805 397.0
16.85 383.0
16.895 410.0
16.94 434.0
16.985 381.0
17.03 423.0
17.075 404.0
17.12 416.0
17.165 431.0
17.21 398.0
17.255 429.0
17.3 425.0
17.345 445.0
17.39 413.0
17.435 472.0
17.48 428.0
17.525 417.0
17.57 436.0
17.615 438.0
17.66 477.0
17.705 483.0
17.75 495.0
17.795 554.0
17.84 567.0
17.885 623.0
17.93 641.0
17.975 646.0
18.02 657.0
18.065 664.0
18.11 621.0
18.155 553.0
18.2 540.0
18.245 499.0
18.29 532.0
18.335 520.0
18.38 501.0
18.425 465.0
18.47 470.0
18.515 474.0
18.56 452.0
18.605 444.0
18.65 451.0
18.695 433.0
18.74 441.0
18.785 454.0
18.83 437.0
18.875 478.0
18.92 460.0
18.965 453.0
19.01 463.0
19.055 416.0
19.1 436.0
19.145 438.0
19.19 434.0
19.235 437.0
19.28 465.0
19.325 406.0
19.37 427.0
19.415 422.0
19.46 448.0
19.505 487.0
19.55 465.0
19.595 454.0
19.64 444.0
19.685 436.0
19.73 457.0
19.775 448.0
19.82 454.0
19.865 458.0
19.91 490.0
19.955 480.0
20.0 459.0
20.045 478.0
20.09 489.0
20.135 474.0
20.18 446.0
20.225 464.0
20.27 469.0
20.315 478.0
20.36 478.0
20.405 504.0
20.45 501.0
20.495 492.0
20.54 518.0
20.585 545.0
20.63 519.0
20.675 597.0
20.72 727.0
20.765 962.0
20.81 1038.0
20.855 1005.0
20.9 951.0
20.945 850.0
20.99 742.0
21.035 642.0
21.08 581.0
21.125 576.0
21.17 580.0
21.215 536.0
21.26 508.0
21.305 529.0
21.35 496.0
21.395 493.0
21.44 522.0
21.485 518.0
21.53 531.0
21.575 526.0
21.62 509.0
21.665 518.0
21.71 537.0
21.755 527.0
21.8 521.0
21.845 552.0
21.89 538.0
21.935 529.0
21.98 550.0
22.025 520.0
22.07 505.0
22.115 517.0
22.16 510.0
22.205 523.0
22.25 529.0
22.295 545.0
22.34 559.0
22.385 534.0
22.43 492.0
22.475 580.0
22.52 529.0
22.565 568.0
22.61 519.0
22.655 550.0
22.7 548.0
22.745 564.0
22.79 545.0
22.835 537.0
22.88 542.0
22.925 532.0
22.97 534.0
23.015 573.0
23.06 553.0
23.105 557.0
23.15 544.0
23.195 523.0
23.24 562.0
23.285 590.0
23.33 531.0
23.375 568.0
23.42 553.0
23.465 592.0
23.51 549.0
23.555 576.0
23.6 570.0
23.645 534.0
23.69 580.0
23.735 564.0
23.78 538.0
23.825 577.0
23.87 614.0
23.915 598.0
23.96 564.0
24.005 585.0
24.05 589.0
24.095 632.0
24.14 743.0
24.185 737.0
24.23 727.0
24.275 807.0
24.32 774.0
24.365 707.0
24.41 668.0
24.455 665.0
24.5 621.0
24.545 686.0
24.59 662.0
24.635 741.0
24.68 790.0
24.725 810.0
24.77 859.0
24.815 926.0
24.86 907.0
24.905 961.0
24.95 1014.0
24.995 928.0
25.04 912.0
25.085 841.0
25.13 818.0
25.175 735.0
25.22 691.0
25.265 717.0
25.31 657.0
25.355 660.0
25.4 630.0
25.445 633.0
25.49 660.0
25.535 631.0
25.58 609.0
25.625 614.0
25.67 607.0
25.715 605.0
25.76 608.0
25.805 639.0
25.85 595.0
25.895 639.0
25.94 628.0
25.985 658.0
26.03 693.0
26.075 649.0
26.12 635.0
26.165 668.0
26.21 677.0
26.255 655.0
26.3 675.0
26.345 654.0
26.39 736.0
26.435 695.0
26.48 711.0
26.525 757.0
26.57 794.0
26.615 840.0
26.66 842.0
26.705 924.0
26.75 956.0
26.795 1043.0
26.84 1117.0
26.885 1371.0
26.93 1498.0
26.975 1708.0
27.02 1805.0
27.065 1804.0
27.11 1742.0
27.155 1481.0
27.2 1408.0
27.245 1361.0
27.29 1279.0
27.335 1307.0
27.38 1285.0
27.425 1325.0
27.47 1427.0
27.515 1501.0
27.56 1649.0
27.605 1737.0
27.65 1957.0
27.695 2013.0
27.74 1965.0
27.785 1869.0
27.83 1594.0
27.875 1499.0
27.92 1319.0
27.965 1152.0
28.01 1111.0
28.055 1035.0
28.1 965.0
28.145 879.0
28.19 794.0
28.235 772.0
28.28 778.0
28.325 737.0
28.37 710.0
28.415 694.0
28.46 673.0
28.505 650.0
28.55 657.0
28.595 645.0
28.64 616.0
28.685 628.0
28.73 625.0
28.775 631.0
28.82 574.0
28.865 588.0
28.91 636.0
28.955 622.0
29.0 614.0
29.045 605.0
29.09 611.0
29.135 625.0
29.18 618.0
29.225 648.0
29.27 639.0
29.315 678.0
29.36 675.0
29.405 666.0
29.45 764.0
29.495 782.0
29.54 769.0
29.585 794.0
29.63 799.0
29.675 839.0
29.72 786.0
29.765 794.0
29.81 719.0
29.855 699.0
29.9 671.0
29.945 606.0
29.99 576.0
30.035 580.0
30.08 537.0
30.125 548.0
30.17 472.0
30.215 494.0
30.26 452.0
30.305 478.0
30.35 452.0
30.395 437.0
30.44 498.0
30.485 469.0
30.53 475.0
30.575 441.0
30.62 434.0
30.665 427.0
30.71 420.0
30.755 426.0
30.8 426.0
30.845 431.0
30.89 444.0
30.935 418.0
30.98 440.0
31.025 405.0
31.07 422.0
31.115 432.0
31.16 452.0
31.205 412.0
31.25 424.0
31.295 411.0
31.34 426.0
31.385 400.0
31.43 421.0
31.475 403.0
31.52 405.0
31.565 420.0
31.61 398.0
31.655 411.0
31.7 379.0
31.745 424.0
31.79 402.0
31.835 423.0
31.88 432.0
31.925 497.0
31.97 617.0
32.015 650.0
32.06 626.0
32.105 656.0
32.15 673.0
32.195 701.0
32.24 692.0
32.285 618.0
32.33 611.0
32.375 550.0
32.42 445.0
32.465 421.0
32.51 405.0
32.555 408.0
32.6 421.0
32.645 397.0
32.69 393.0
32.735 374.0
32.78 373.0
32.825 378.0
32.87 371.0
32.915 395.0
32.96 368.0
33.005 385.0
33.05 381.0
33.095 351.0
33.14 355.0
33.185 367.0
33.23 370.0
33.275 393.0
33.32 343.0
33.365 337.0
33.41 364.0
33.455 340.0
33.5 362.0
33.545 359.0
33.59 340.0
33.635 340.0
33.68 362.0
33.725 336.0
33.77 367.0
33.815 351.0
33.86 340.0
33.905 313.0
33.95 355.0
33.995 340.0
34.04 330.0
34.085 317.0
34.13 354.0
34.175 336.0
34.22 337.0
34.265 345.0
34.31 348.0
34.355 374.0
34.4 376.0
34.445 367.0
34.49 354.0
34.535 346.0
34.58 341.0
34.625 383.0
34.67 365.0
34.715 364.0
34.76 390.0
34.805 371.0
34.85 367.0
34.895 401.0
34.94 389.0
34.985 430.0
35.03 418.0
35.075 391.0
35.12 378.0
35.165 400.0
35.21 385.0
35.255 352.0
35.3 345.0
35.345 332.0
35.39 314.0
35.435 322.0
35.48 308.0
35.525 287.0
35.57 315.0
35.615 287.0
35.66 317.0
35.705 297.0
35.75 308.0
35.795 293.0
35.84 327.0
35.885 317.0
35.93 297.0
35.975 312.0
36.02 293.0
36.065 288.0
36.11 306.0
36.155 272.0
36.2 311.0
36.245 275.0
36.29 313.0
36.335 284.0
36.38 305.0
36.425 287.0
36.47 305.0
36.515 324.0
36.56 298.0
36.605 287.0
36.65 298.0
36.695 283.0
36.74 291.0
36.785 308.0
36.83 274.0
36.875 280.0
36.92 278.0
36.965 285.0
37.01 275.0
37.055 271.0
37.1 258.0
37.145 287.0
37.19 267.0
37.235 253.0
37.28 261.0
37.325 273.0
37.37 262.0
37.415 244.0
37.46 247.0
37.505 275.0
37.55 278.0
37.595 280.0
37.64 247.0
37.685 247.0
37.73 277.0
37.775 284.0
37.82 238.0
37.865 271.0
37.91 243.0
37.955 242.0
38.0 261.0
38.045 246.0
38.09 277.0
38.135 250.0
38.18 264.0
38.225 279.0
38.27 258.0
38.315 263.0
38.36 248.0
38.405 258.0
38.45 263.0
38.495 280.0
38.54 242.0
38.585 273.0
38.63 235.0
38.675 253.0
38.72 269.0
38.765 245.0
38.81 228.0
38.855 258.0
38.9 248.0
38.945 277.0
38.99 260.0
39.035 276.0
39.08 276.0
39.125 254.0
39.17 250.0
39.215 240.0
39.26 253.0
39.305 278.0
39.35 280.0
39.395 288.0
39.44 289.0
39.485 283.0
39.53 293.0
39.575 281.0
39.62 309.0
39.665 306.0
39.71 311.0
39.755 361.0
39.8 317.0
39.845 320.0
39.89 310.0
39.935 278.0
39.98 279.0
40.025 295.0
40.07 260.0
40.115 267.0
40.16 253.0
40.205 238.0
40.25 264.0
40.295 255.0
40.34 238.0
40.385 241.0
40.43 253.0
40.475 227.0
40.52 254.0
40.565 237.0
40.61 253.0
40.655 231.0
40.7 250.0
40.745 258.0
40.79 236.0
40.835 238.0
40.88 256.0
40.925 243.0
40.97 247.0
41.015 239.0
41.06 248.0
41.105 247.0
41.15 260.0
41.195 245.0
41.24 257.0
41.285 261.0
41.33 249.0
41.375 257.0
41.42 256.0
41.465 255.0
41.51 269.0
41.555 253.0
41.6 235.0
41.645 272.0
41.69 254.0
41.735 238.0
41.78 254.0
41.825 260.0
41.87 245.0
41.915 250.0
41.96 253.0
42.005 259.0
42.05 260.0
42.095 257.0
42.14 278.0
42.185 279.0
42.23 341.0
42.275 348.0
42.32 351.0
42.365 304.0
42.41 311.0
42.455 331.0
42.5 289.0
42.545 334.0
42.59 363.0
42.635 362.0
42.68 373.0
42.725 321.0
42.77 316.0
42.815 290.0
42.86 266.0
42.905 284.0
42.95 288.0
42.995 266.0
43.04 278.0
43.085 290.0
43.13 274.0
43.175 258.0
43.22 264.0
43.265 265.0
43.31 244.0
43.355 263.0
43.4 261.0
43.445 240.0
43.49 253.0
43.535 252.0
43.58 265.0
43.625 266.0
43.67 279.0
43.715 258.0
43.76 243.0
43.805 271.0
43.85 267.0
43.895 298.0
43.94 271.0
43.985 279.0
44.03 279.0
44.075 289.0
44.12 301.0
44.165 314.0
44.21 310.0
44.255 358.0
44.3 392.0
44.345 450.0
44.39 448.0
44.435 416.0
44.48 395.0
44.525 397.0
44.57 436.0
44.615 438.0
44.66 442.0
44.705 460.0
44.75 434.0
44.795 434.0
44.84 489.0
44.885 463.0
44.93 447.0
44.975 450.0
45.02 435.0
45.065 382.0
45.11 365.0
45.155 331.0
45.2 343.0
45.245 307.0
45.29 302.0
45.335 282.0
45.38 270.0
45.425 256.0
45.47 251.0
45.515 260.0
45.56 253.0
45.605 248.0
45.65 259.0
45.695 248.0
45.74 249.0
45.785 232.0
45.83 253.0
45.875 241.0
45.92 234.0
45.965 246.0
46.01 266.0
46.055 248.0
46.1 237.0
46.145 248.0
46.19 249.0
46.235 260.0
46.28 244.0
46.325 265.0
46.37 277.0
46.415 273.0
46.46 273.0
46.505 265.0
46.55 250.0
46.595 251.0
46.64 267.0
46.685 277.0
46.73 267.0
46.775 261.0
46.82 254.0
46.865 246.0
46.91 219.0
46.955 273.0
47.0 243.0
47.045 230.0
47.09 229.0
47.135 243.0
47.18 207.0
47.225 228.0
47.27 218.0
47.315 222.0
47.36 210.0
47.405 232.0
47.45 210.0
47.495 234.0
47.54 226.0
47.585 231.0
47.63 231.0
47.675 224.0
47.72 231.0
47.765 205.0
47.81 202.0
47.855 187.0
47.9 210.0
47.945 208.0
47.99 216.0
48.035 217.0
48.08 197.0
48.125 231.0
48.17 213.0
48.215 197.0
48.26 210.0
48.305 199.0
48.35 215.0
48.395 208.0
48.44 208.0
48.485 191.0
48.53 190.0
48.575 221.0
48.62 204.0
48.665 224.0
48.71 218.0
48.755 225.0
48.8 211.0
48.845 203.0
48.89 205.0
48.935 207.0
48.98 199.0
49.025 202.0
49.07 204.0
49.115 207.0
49.16 209.0
49.205 210.0
49.25 220.0
49.295 220.0
49.34 215.0
49.385 235.0
49.43 217.0
49.475 220.0
49.52 211.0
49.565 184.0
49.61 209.0
49.655 237.0
49.7 202.0
49.745 213.0
49.79 200.0
49.835 206.0
49.88 201.0
49.925 208.0
49.97 213.0
50.015 217.0
50.06 235.0
50.105 218.0
50.15 196.0
50.195 222.0
50.24 236.0
50.285 187.0
50.33 215.0
50.375 220.0
50.42 224.0
50.465 221.0
50.51 214.0
50.555 237.0
50.6 223.0
50.645 207.0
50.69 207.0
50.735 206.0
50.78 194.0
50.825 236.0
50.87 229.0
50.915 209.0
50.96 214.0
51.005 227.0
51.05 227.0
51.095 231.0
51.14 212.0
51.185 197.0
51.23 214.0
51.275 204.0
51.32 215.0
51.365 226.0
51.41 203.0
51.455 215.0
51.5 197.0
51.545 217.0
51.59 208.0
51.635 191.0
51.68 184.0
51.725 197.0
51.77 206.0
51.815 201.0
51.86 197.0
51.905 210.0
51.95 199.0
51.995 196.0
52.04 199.0
52.085 192.0
52.13 177.0
52.175 214.0
52.22 233.0
52.265 193.0
52.31 208.0
52.355 228.0
52.4 188.0
52.445 201.0
52.49 226.0
52.535 192.0
52.58 186.0
52.625 219.0
52.67 200.0
52.715 207.0
52.76 213.0
52.805 205.0
52.85 186.0
52.895 212.0
52.94 202.0
52.985 211.0
53.03 199.0
53.075 199.0
53.12 212.0
53.165 200.0
53.21 189.0
53.255 203.0
53.3 175.0
53.345 192.0
53.39 203.0
53.435 191.0
53.48 195.0
53.525 184.0
53.57 181.0
53.615 183.0
53.66 204.0
53.705 185.0
53.75 202.0
53.795 189.0
53.84 210.0
53.885 199.0
53.93 204.0
53.975 213.0
54.02 217.0
54.065 218.0
54.11 207.0
54.155 216.0
54.2 223.0
54.245 217.0
54.29 216.0
54.335 204.0
54.38 199.0
54.425 206.0
54.47 197.0
54.515 214.0
54.56 208.0
54.605 213.0
54.65 201.0
54.695 202.0
54.74 202.0
54.785 208.0
54.83 210.0
54.875 204.0
54.92 207.0
54.965 177.0
55.01 194.0
55.055 200.0
55.1 183.0
55.145 215.0
55.19 200.0
55.235 233.0
55.28 208.0
55.325 182.0
55.37 200.0
55.415 198.0
55.46 207.0
55.505 199.0
55.55 216.0
55.595 232.0
55.64 237.0
55.685 217.0
55.73 246.0
55.775 231.0
55.82 245.0
55.865 226.0
55.91 245.0
55.955 249.0
56.0 262.0
56.045 281.0
56.09 287.0
56.135 276.0
56.18 278.0
56.225 270.0
56.27 269.0
56.315 288.0
56.36 261.0
56.405 257.0
56.45 264.0
56.495 272.0
56.54 242.0
56.585 255.0
56.63 234.0
56.675 239.0
56.72 242.0
56.765 223.0
56.81 227.0
56.855 223.0
56.9 223.0
56.945 231.0
56.99 231.0
57.035 234.0
57.08 226.0
57.125 222.0
57.17 222.0
57.215 248.0
57.26 208.0
57.305 236.0
57.35 230.0
57.395 230.0
57.44 228.0
57.485 231.0
57.53 205.0
57.575 224.0
57.62 220.0
57.665 207.0
57.71 216.0
57.755 217.0
57.8 200.0
57.845 197.0
57.89 202.0
57.935 211.0
57.98 203.0
58.025 202.0
58.07 180.0
58.115 217.0
58.16 180.0
58.205 207.0
58.25 195.0
58.295 174.0
58.34 180.0
58.385 191.0
58.43 193.0
58.475 195.0
58.52 167.0
58.565 195.0
58.61 195.0
58.655 193.0
58.7 187.0
58.745 174.0
58.79 173.0
58.835 188.0
58.88 189.0
58.925 200.0
58.97 199.0
59.015 199.0
59.06 179.0
59.105 196.0
59.15 189.0
59.195 182.0
59.24 187.0
59.285 193.0
59.33 207.0
59.375 178.0
59.42 190.0
59.465 182.0
59.51 185.0
59.555 171.0
59.6 201.0
59.645 177.0
59.69 182.0
59.735 186.0
59.78 165.0
59.825 191.0
59.87 183.0
59.915 197.0
59.96 193.0
60.005 187.0
60.05 153.0
60.095 174.0
60.14 189.0
60.185 198.0
60.23 186.0
60.275 185.0
60.32 164.0
60.365 197.0
60.41 178.0
60.455 179.0
60.5 180.0
60.545 185.0
60.59 183.0
60.635 203.0
60.68 194.0
60.725 185.0
60.77 173.0
60.815 166.0
60.86 190.0
60.905 181.0
60.95 182.0
60.995 165.0
61.04 159.0
61.085 214.0
61.13 188.0
61.175 177.0
61.22 158.0
61.265 203.0
61.31 206.0
61.355 207.0
61.4 168.0
61.445 181.0
61.49 189.0
61.535 178.0
61.58 182.0
61.625 169.0
61.67 191.0
61.715 192.0
61.76 185.0
61.805 174.0
61.85 188.0
61.895 182.0
61.94 201.0
61.985 175.0