File: ISoD/xrd_data/HSC072_ranges_combined.xy
2.0 9.0
2.045 9.0
2.09 11.0
2.135 7.0
2.18 8.0
2.225 16.0
2.27 8.0
2.315 10.0
2.36 6.0
2.405 7.0
2.45 9.0
2.495 9.0
2.54 7.0
2.585 5.0
2.63 8.0
2.675 7.0
2.72 5.0
2.765 13.0
2.81 8.0
2.855 10.0
2.9 10.0
2.945 8.0
2.99 8.0
3.035 5.0
3.08 5.0
3.125 17.0
3.17 44.0
3.215 141.0
3.26 280.0
3.305 460.0
3.35 530.0
3.395 556.0
3.44 526.0
3.485 532.0
3.53 506.0
3.575 516.0
3.62 517.0
3.665 529.0
3.71 562.0
3.755 582.0
3.8 513.0
3.845 503.0
3.89 540.0
3.935 497.0
3.98 536.0
4.025 542.0
4.07 527.0
4.115 498.0
4.16 535.0
4.205 560.0
4.25 521.0
4.295 508.0
4.34 513.0
4.385 524.0
4.43 539.0
4.475 557.0
4.52 537.0
4.565 541.0
4.61 560.0
4.655 576.0
4.7 558.0
4.745 559.0
4.79 572.0
4.835 576.0
4.88 545.0
4.925 548.0
4.97 579.0
5.015 582.0
5.06 588.0
5.105 584.0
5.15 604.0
5.195 582.0
5.24 594.0
5.285 635.0
5.33 622.0
5.375 613.0
5.42 604.0
5.465 629.0
5.51 602.0
5.555 608.0
5.6 631.0
5.645 590.0
5.69 634.0
5.735 618.0
5.78 601.0
5.825 603.0
5.87 664.0
5.915 628.0
5.96 631.0
6.005 628.0
6.05 616.0
6.095 647.0
6.14 630.0
6.185 662.0
6.23 668.0
6.275 632.0
6.32 647.0
6.365 662.0
6.41 636.0
6.455 663.0
6.5 669.0
6.545 662.0
6.59 683.0
6.635 672.0
6.68 679.0
6.725 716.0
6.77 652.0
6.815 721.0
6.86 695.0
6.905 689.0
6.95 697.0
6.995 670.0
7.04 714.0
7.085 718.0
7.13 707.0
7.175 679.0
7.22 724.0
7.265 734.0
7.31 696.0
7.355 719.0
7.4 696.0
7.445 701.0
7.49 729.0
7.535 680.0
7.58 743.0
7.625 697.0
7.67 703.0
7.715 711.0
7.76 711.0
7.805 720.0
7.85 727.0
7.895 707.0
7.94 756.0
7.985 708.0
8.03 699.0
8.075 717.0
8.12 715.0
8.165 724.0
8.21 688.0
8.255 769.0
8.3 753.0
8.345 715.0
8.39 766.0
8.435 726.0
8.48 721.0
8.525 716.0
8.57 730.0
8.615 710.0
8.66 697.0
8.705 769.0
8.75 737.0
8.795 778.0
8.84 744.0
8.885 755.0
8.93 764.0
8.975 786.0
9.02 738.0
9.065 706.0
9.11 754.0
9.155 751.0
9.2 750.0
9.245 750.0
9.29 747.0
9.335 733.0
9.38 752.0
9.425 750.0
9.47 750.0
9.515 746.0
9.56 750.0
9.605 734.0
9.65 764.0
9.695 770.0
9.74 752.0
9.785 776.0
9.83 739.0
9.875 725.0
9.92 755.0
9.965 715.0
10.01 766.0
10.055 756.0
10.1 748.0
10.145 737.0
10.19 787.0
10.235 743.0
10.28 718.0
10.325 761.0
10.37 764.0
10.415 764.0
10.46 747.0
10.505 761.0
10.55 772.0
10.595 783.0
10.64 742.0
10.685 739.0
10.73 757.0
10.775 787.0
10.82 783.0
10.865 760.0
10.91 772.0
10.955 759.0
11.0 753.0
11.045 788.0
11.09 738.0
11.135 730.0
11.18 779.0
11.225 806.0
11.27 806.0
11.315 765.0
11.36 755.0
11.405 753.0
11.45 753.0
11.495 785.0
11.54 763.0
11.585 761.0
11.63 782.0
11.675 788.0
11.72 769.0
11.765 759.0
11.81 804.0
11.855 766.0
11.9 738.0
11.945 797.0
11.99 791.0
12.035 788.0
12.08 738.0
12.125 790.0
12.17 791.0
12.215 768.0
12.26 807.0
12.305 781.0
12.35 748.0
12.395 770.0
12.44 800.0
12.485 784.0
12.53 753.0
12.575 818.0
12.62 763.0
12.665 762.0
12.71 769.0
12.755 820.0
12.8 793.0
12.845 796.0
12.89 815.0
12.935 788.0
12.98 812.0
13.025 809.0
13.07 786.0
13.115 792.0
13.16 757.0
13.205 772.0
13.25 747.0
13.295 752.0
13.34 806.0
13.385 810.0
13.43 828.0
13.475 802.0
13.52 795.0
13.565 810.0
13.61 790.0
13.655 809.0
13.7 783.0
13.745 818.0
13.79 797.0
13.835 766.0
13.88 795.0
13.925 778.0
13.97 754.0
14.015 825.0
14.06 816.0
14.105 828.0
14.15 804.0
14.195 797.0
14.24 833.0
14.285 800.0
14.33 820.0
14.375 748.0
14.42 797.0
14.465 769.0
14.51 796.0
14.555 833.0
14.6 750.0
14.645 775.0
14.69 792.0
14.735 802.0
14.78 794.0
14.825 764.0
14.87 842.0
14.915 779.0
14.96 800.0
15.005 831.0
15.05 778.0
15.095 753.0
15.14 766.0
15.185 787.0
15.23 769.0
15.275 801.0
15.32 804.0
15.365 832.0
15.41 819.0
15.455 756.0
15.5 793.0
15.545 781.0
15.59 819.0
15.635 759.0
15.68 807.0
15.725 857.0
15.77 786.0
15.815 793.0
15.86 797.0
15.905 755.0
15.95 797.0
15.995 821.0
16.04 739.0
16.085 800.0
16.13 778.0
16.175 785.0
16.22 808.0
16.265 783.0
16.31 749.0
16.355 814.0
16.4 826.0
16.445 816.0
16.49 768.0
16.535 813.0
16.58 812.0
16.625 811.0
16.67 784.0
16.715 774.0
16.76 826.0
16.805 813.0
16.85 807.0
16.895 777.0
16.94 831.0
16.985 792.0
17.03 786.0
17.075 828.0
17.12 786.0
17.165 809.0
17.21 765.0
17.255 768.0
17.3 806.0
17.345 786.0
17.39 806.0
17.435 821.0
17.48 811.0
17.525 821.0
17.57 813.0
17.615 847.0
17.66 832.0
17.705 791.0
17.75 815.0
17.795 825.0
17.84 816.0
17.885 822.0
17.93 812.0
17.975 794.0
18.02 775.0
18.065 834.0
18.11 799.0
18.155 789.0
18.2 776.0
18.245 799.0
18.29 817.0
18.335 814.0
18.38 819.0
18.425 793.0
18.47 790.0
18.515 804.0
18.56 821.0
18.605 826.0
18.65 838.0
18.695 811.0
18.74 854.0
18.785 835.0
18.83 833.0
18.875 790.0
18.92 811.0
18.965 806.0
19.01 856.0
19.055 805.0
19.1 819.0
19.145 857.0
19.19 843.0
19.235 845.0
19.28 831.0
19.325 791.0
19.37 812.0
19.415 805.0
19.46 817.0
19.505 821.0
19.55 801.0
19.595 835.0
19.64 815.0
19.685 801.0
19.73 820.0
19.775 842.0
19.82 794.0
19.865 818.0
19.91 823.0
19.955 812.0
20.0 780.0
20.045 786.0
20.09 820.0
20.135 817.0
20.18 857.0
20.225 821.0
20.27 815.0
20.315 844.0
20.36 832.0
20.405 811.0
20.45 775.0
20.495 850.0
20.54 798.0
20.585 837.0
20.63 819.0
20.675 858.0
20.72 812.0
20.765 815.0
20.81 920.0
20.855 844.0
20.9 823.0
20.945 835.0
20.99 885.0
21.035 873.0
21.08 852.0
21.125 829.0
21.17 830.0
21.215 850.0
21.26 906.0
21.305 831.0
21.35 837.0
21.395 843.0
21.44 831.0
21.485 838.0
21.53 845.0
21.575 832.0
21.62 816.0
21.665 871.0
21.71 860.0
21.755 851.0
21.8 888.0
21.845 805.0
21.89 835.0
21.935 831.0
21.98 831.0
22.025 869.0
22.07 867.0
22.115 852.0
22.16 850.0
22.205 837.0
22.25 814.0
22.295 821.0
22.34 807.0
22.385 829.0
22.43 828.0
22.475 861.0
22.52 856.0
22.565 824.0
22.61 832.0
22.655 851.0
22.7 839.0
22.745 820.0
22.79 855.0
22.835 829.0
22.88 834.0
22.925 858.0
22.97 848.0
23.015 867.0
23.06 849.0
23.105 844.0
23.15 865.0
23.195 817.0
23.24 842.0
23.285 852.0
23.33 888.0
23.375 861.0
23.42 837.0
23.465 825.0
23.51 863.0
23.555 792.0
23.6 805.0
23.645 809.0
23.69 838.0
23.735 840.0
23.78 824.0
23.825 825.0
23.87 837.0
23.915 808.0
23.96 823.0
24.005 833.0
24.05 796.0
24.095 834.0
24.14 878.0
24.185 792.0
24.23 812.0
24.275 862.0
24.32 860.0
24.365 795.0
24.41 806.0
24.455 857.0
24.5 896.0
24.545 853.0
24.59 842.0
24.635 843.0
24.68 848.0
24.725 858.0
24.77 872.0
24.815 823.0
24.86 783.0
24.905 841.0
24.95 782.0
24.995 812.0
25.04 801.0
25.085 844.0
25.13 812.0
25.175 815.0
25.22 866.0
25.265 815.0
25.31 845.0
25.355 858.0
25.4 794.0
25.445 835.0
25.49 860.0
25.535 854.0
25.58 848.0
25.625 836.0
25.67 824.0
25.715 872.0
25.76 875.0
25.805 838.0
25.85 834.0
25.895 866.0
25.94 885.0
25.985 857.0
26.03 831.0
26.075 833.0
26.12 817.0
26.165 866.0
26.21 856.0
26.255 844.0
26.3 812.0
26.345 854.0
26.39 879.0
26.435 859.0
26.48 872.0
26.525 857.0
26.57 820.0
26.615 873.0
26.66 867.0
26.705 840.0
26.75 859.0
26.795 844.0
26.84 881.0
26.885 868.0
26.93 882.0
26.975 861.0
27.02 856.0
27.065 891.0
27.11 896.0
27.155 841.0
27.2 878.0
27.245 860.0
27.29 909.0
27.335 903.0
27.38 884.0
27.425 931.0
27.47 927.0
27.515 925.0
27.56 929.0
27.605 966.0
27.65 939.0
27.695 969.0
27.74 906.0
27.785 956.0
27.83 903.0
27.875 889.0
27.92 928.0
27.965 888.0
28.01 885.0
28.055 853.0
28.1 909.0
28.145 865.0
28.19 853.0
28.235 876.0
28.28 770.0
28.325 861.0
28.37 788.0
28.415 802.0
28.46 794.0
28.505 817.0
28.55 776.0
28.595 751.0
28.64 745.0
28.685 788.0
28.73 779.0
28.775 722.0
28.82 735.0
28.865 710.0
28.91 705.0
28.955 719.0
29.0 745.0
29.045 691.0
29.09 787.0
29.135 704.0
29.18 714.0
29.225 747.0
29.27 732.0
29.315 699.0
29.36 753.0
29.405 780.0
29.45 731.0
29.495 721.0
29.54 719.0
29.585 718.0
29.63 675.0
29.675 692.0
29.72 681.0
29.765 667.0
29.81 687.0
29.855 662.0
29.9 643.0
29.945 652.0
29.99 722.0
30.035 693.0
30.08 641.0
30.125 655.0
30.17 643.0
30.215 652.0
30.26 629.0
30.305 643.0
30.35 615.0
30.395 664.0
30.44 653.0
30.485 633.0
30.53 624.0
30.575 665.0
30.62 642.0
30.665 658.0
30.71 703.0
30.755 622.0
30.8 655.0
30.845 644.0
30.89 674.0
30.935 629.0
30.98 609.0
31.025 655.0
31.07 617.0
31.115 601.0
31.16 611.0
31.205 609.0
31.25 612.0
31.295 567.0
31.34 599.0
31.385 656.0
31.43 588.0
31.475 609.0
31.52 641.0
31.565 589.0
31.61 617.0
31.655 578.0
31.7 569.0
31.745 598.0
31.79 575.0
31.835 571.0
31.88 534.0
31.925 582.0
31.97 561.0
32.015 588.0
32.06 581.0
32.105 602.0
32.15 571.0
32.195 575.0
32.24 555.0
32.285 579.0
32.33 584.0
32.375 552.0
32.42 555.0
32.465 542.0
32.51 575.0
32.555 548.0
32.6 561.0
32.645 530.0
32.69 563.0
32.735 522.0
32.78 538.0
32.825 539.0
32.87 543.0
32.915 511.0
32.96 533.0
33.005 512.0
33.05 522.0
33.095 541.0
33.14 488.0
33.185 504.0
33.23 509.0
33.275 506.0
33.32 499.0
33.365 500.0
33.41 487.0
33.455 518.0
33.5 493.0
33.545 499.0
33.59 509.0
33.635 517.0
33.68 482.0
33.725 497.0
33.77 483.0
33.815 509.0
33.86 488.0
33.905 516.0
33.95 475.0
33.995 512.0
34.04 479.0
34.085 500.0
34.13 479.0
34.175 476.0
34.22 467.0
34.265 473.0
34.31 456.0
34.355 462.0
34.4 462.0
34.445 455.0
34.49 477.0
34.535 488.0
34.58 466.0
34.625 450.0
34.67 465.0
34.715 480.0
34.76 441.0
34.805 454.0
34.85 438.0
34.895 468.0
34.94 454.0
34.985 460.0
35.03 438.0
35.075 462.0
35.12 438.0
35.165 444.0
35.21 441.0
35.255 420.0
35.3 415.0
35.345 452.0
35.39 427.0
35.435 445.0
35.48 456.0
35.525 389.0
35.57 440.0
35.615 421.0
35.66 420.0
35.705 424.0
35.75 416.0
35.795 463.0
35.84 412.0
35.885 391.0
35.93 436.0
35.975 438.0
36.02 393.0
36.065 453.0
36.11 435.0
36.155 424.0
36.2 349.0
36.245 402.0
36.29 389.0
36.335 386.0
36.38 356.0
36.425 386.0
36.47 377.0
36.515 392.0
36.56 386.0
36.605 364.0
36.65 384.0
36.695 393.0
36.74 407.0
36.785 384.0
36.83 368.0
36.875 391.0
36.92 388.0
36.965 388.0
37.01 394.0
37.055 372.0
37.1 368.0
37.145 388.0
37.19 379.0
37.235 363.0
37.28 359.0
37.325 409.0
37.37 371.0
37.415 345.0
37.46 368.0
37.505 359.0
37.55 371.0
37.595 351.0
37.64 361.0
37.685 364.0
37.73 397.0
37.775 363.0
37.82 360.0
37.865 330.0
37.91 351.0
37.955 329.0
38.0 372.0
38.045 368.0
38.09 357.0
38.135 343.0
38.18 375.0
38.225 347.0
38.27 386.0
38.315 362.0
38.36 344.0
38.405 360.0
38.45 347.0
38.495 334.0
38.54 375.0
38.585 357.0
38.63 350.0
38.675 351.0
38.72 344.0
38.765 341.0
38.81 340.0
38.855 381.0
38.9 344.0
38.945 341.0
38.99 374.0
39.035 346.0
39.08 326.0
39.125 339.0
39.17 376.0
39.215 351.0
39.26 325.0
39.305 332.0
39.35 337.0
39.395 367.0
39.44 371.0
39.485 336.0
39.53 328.0
39.575 366.0
39.62 355.0
39.665 331.0
39.71 339.0
39.755 316.0
39.8 313.0
39.845 339.0
39.89 329.0
39.935 327.0
39.98 342.0
40.025 324.0
40.07 329.0
40.115 316.0
40.16 321.0
40.205 316.0
40.25 319.0
40.295 330.0
40.34 319.0
40.385 317.0
40.43 343.0
40.475 328.0
40.52 326.0
40.565 320.0
40.61 339.0
40.655 333.0
40.7 318.0
40.745 300.0
40.79 335.0
40.835 291.0
40.88 322.0
40.925 301.0
40.97 304.0
41.015 344.0
41.06 327.0
41.105 332.0
41.15 331.0
41.195 347.0
41.24 324.0
41.285 327.0
41.33 320.0
41.375 321.0
41.42 327.0
41.465 319.0
41.51 329.0
41.555 335.0
41.6 318.0
41.645 306.0
41.69 311.0
41.735 326.0
41.78 335.0
41.825 327.0
41.87 297.0
41.915 294.0
41.96 331.0
42.005 318.0
42.05 310.0
42.095 328.0
42.14 302.0
42.185 321.0
42.23 319.0
42.275 302.0
42.32 328.0
42.365 298.0
42.41 325.0
42.455 335.0
42.5 309.0
42.545 315.0
42.59 322.0
42.635 299.0
42.68 322.0
42.725 328.0
42.77 335.0
42.815 326.0
42.86 314.0
42.905 325.0
42.95 311.0
42.995 283.0
43.04 313.0
43.085 305.0
43.13 323.0
43.175 326.0
43.22 346.0
43.265 338.0
43.31 311.0
43.355 326.0
43.4 332.0
43.445 289.0
43.49 294.0
43.535 298.0
43.58 315.0
43.625 319.0
43.67 296.0
43.715 314.0
43.76 315.0
43.805 307.0
43.85 318.0
43.895 319.0
43.94 296.0
43.985 330.0
44.03 325.0
44.075 339.0
44.12 300.0
44.165 295.0
44.21 284.0
44.255 308.0
44.3 300.0
44.345 273.0
44.39 319.0
44.435 315.0
44.48 291.0
44.525 285.0
44.57 317.0
44.615 290.0
44.66 309.0
44.705 283.0
44.75 278.0
44.795 321.0
44.84 294.0
44.885 302.0
44.93 295.0
44.975 297.0
45.02 258.0
45.065 281.0
45.11 277.0
45.155 302.0
45.2 284.0
45.245 299.0
45.29 252.0
45.335 316.0
45.38 280.0
45.425 281.0
45.47 284.0
45.515 306.0
45.56 310.0
45.605 292.0
45.65 284.0
45.695 299.0
45.74 282.0
45.785 288.0
45.83 284.0
45.875 276.0
45.92 271.0
45.965 304.0
46.01 291.0
46.055 309.0
46.1 293.0
46.145 270.0
46.19 283.0
46.235 283.0
46.28 279.0
46.325 259.0
46.37 281.0
46.415 252.0
46.46 276.0
46.505 279.0
46.55 262.0
46.595 290.0
46.64 296.0
46.685 264.0
46.73 294.0
46.775 250.0
46.82 264.0
46.865 292.0
46.91 268.0
46.955 273.0
47.0 265.0
47.045 288.0
47.09 294.0
47.135 278.0
47.18 260.0
47.225 308.0
47.27 281.0
47.315 292.0
47.36 265.0
47.405 270.0
47.45 266.0
47.495 283.0
47.54 323.0
47.585 291.0
47.63 274.0
47.675 304.0
47.72 271.0
47.765 251.0
47.81 272.0
47.855 266.0
47.9 252.0
47.945 258.0
47.99 252.0
48.035 269.0
48.08 254.0
48.125 265.0
48.17 243.0
48.215 279.0
48.26 260.0
48.305 270.0
48.35 258.0
48.395 249.0
48.44 240.0
48.485 278.0
48.53 273.0
48.575 288.0
48.62 264.0
48.665 257.0
48.71 248.0
48.755 225.0
48.8 256.0
48.845 249.0
48.89 240.0
48.935 242.0
48.98 262.0
49.025 266.0
49.07 238.0
49.115 270.0
49.16 250.0
49.205 248.0
49.25 231.0
49.295 254.0
49.34 263.0
49.385 236.0
49.43 277.0
49.475 251.0
49.52 266.0
49.565 246.0
49.61 261.0
49.655 265.0
49.7 241.0
49.745 244.0
49.79 270.0
49.835 270.0
49.88 255.0
49.925 242.0
49.97 258.0
50.015 247.0
50.06 242.0
50.105 270.0
50.15 256.0
50.195 243.0
50.24 253.0
50.285 273.0
50.33 233.0
50.375 249.0
50.42 258.0
50.465 249.0
50.51 261.0
50.555 249.0
50.6 256.0
50.645 246.0
50.69 246.0
50.735 253.0
50.78 234.0
50.825 224.0
50.87 251.0
50.915 241.0
50.96 245.0
51.005 228.0
51.05 232.0
51.095 252.0
51.14 228.0
51.185 264.0
51.23 234.0
51.275 231.0
51.32 237.0
51.365 245.0
51.41 246.0
51.455 226.0
51.5 245.0
51.545 266.0
51.59 249.0
51.635 238.0
51.68 244.0
51.725 252.0
51.77 246.0
51.815 219.0
51.86 248.0
51.905 248.0
51.95 232.0
51.995 250.0
52.04 230.0
52.085 243.0
52.13 240.0
52.175 230.0
52.22 252.0
52.265 247.0
52.31 235.0
52.355 230.0
52.4 245.0
52.445 258.0
52.49 239.0
52.535 249.0
52.58 242.0
52.625 266.0
52.67 268.0
52.715 249.0
52.76 251.0
52.805 232.0
52.85 239.0
52.895 259.0
52.94 223.0
52.985 223.0
53.03 234.0
53.075 251.0
53.12 261.0
53.165 228.0
53.21 235.0
53.255 232.0
53.3 241.0
53.345 246.0
53.39 235.0
53.435 248.0
53.48 240.0
53.525 245.0
53.57 240.0
53.615 234.0
53.66 235.0
53.705 231.0
53.75 223.0
53.795 234.0
53.84 228.0
53.885 232.0
53.93 255.0
53.975 249.0
54.02 212.0
54.065 230.0
54.11 239.0
54.155 250.0
54.2 231.0
54.245 235.0
54.29 224.0
54.335 256.0
54.38 247.0
54.425 224.0
54.47 232.0
54.515 230.0
54.56 238.0
54.605 240.0
54.65 223.0
54.695 247.0
54.74 246.0
54.785 238.0
54.83 227.0
54.875 252.0
54.92 230.0
54.965 222.0
55.01 250.0
55.055 219.0
55.1 234.0
55.145 232.0
55.19 218.0
55.235 245.0
55.28 239.0
55.325 226.0
55.37 223.0
55.415 209.0
55.46 236.0
55.505 223.0
55.55 230.0
55.595 244.0
55.64 227.0
55.685 227.0
55.73 242.0
55.775 238.0
55.82 237.0
55.865 214.0
55.91 241.0
55.955 238.0
56.0 196.0
56.045 217.0
56.09 240.0
56.135 238.0
56.18 257.0
56.225 230.0
56.27 252.0
56.315 236.0
56.36 240.0
56.405 229.0
56.45 220.0
56.495 226.0
56.54 208.0
56.585 247.0
56.63 224.0
56.675 227.0
56.72 220.0
56.765 233.0
56.81 227.0
56.855 241.0
56.9 211.0
56.945 217.0
56.99 230.0
57.035 229.0
57.08 218.0
57.125 204.0
57.17 235.0
57.215 223.0
57.26 230.0
57.305 240.0
57.35 223.0
57.395 223.0
57.44 234.0
57.485 227.0
57.53 225.0
57.575 242.0
57.62 242.0
57.665 221.0
57.71 218.0
57.755 220.0
57.8 237.0
57.845 229.0
57.89 243.0
57.935 236.0
57.98 238.0
58.025 243.0
58.07 241.0
58.115 242.0
58.16 220.0
58.205 236.0
58.25 212.0
58.295 236.0
58.34 229.0
58.385 224.0
58.43 214.0
58.475 224.0
58.52 232.0
58.565 203.0
58.61 219.0
58.655 229.0
58.7 245.0
58.745 222.0
58.79 224.0
58.835 228.0
58.88 210.0
58.925 211.0
58.97 227.0
59.015 215.0
59.06 196.0
59.105 210.0
59.15 226.0
59.195 212.0
59.24 219.0
59.285 208.0
59.33 209.0
59.375 220.0
59.42 201.0
59.465 221.0
59.51 195.0
59.555 229.0
59.6 214.0
59.645 201.0
59.69 230.0
59.735 207.0
59.78 205.0
59.825 225.0
59.87 209.0
59.915 221.0
59.96 229.0
60.005 216.0
60.05 204.0
60.095 220.0
60.14 238.0
60.185 217.0
60.23 197.0
60.275 227.0
60.32 217.0
60.365 210.0
60.41 217.0
60.455 198.0
60.5 217.0
60.545 218.0
60.59 224.0
60.635 212.0
60.68 192.0
60.725 228.0
60.77 225.0
60.815 223.0
60.86 202.0
60.905 195.0
60.95 203.0
60.995 219.0
61.04 200.0
61.085 223.0
61.13 221.0
61.175 217.0
61.22 206.0
61.265 208.0
61.31 214.0
61.355 225.0
61.4 202.0
61.445 206.0
61.49 207.0
61.535 207.0
61.58 224.0
61.625 221.0
61.67 215.0
61.715 202.0
61.76 220.0
61.805 199.0
61.85 205.0
61.895 218.0
61.94 220.0
61.985 211.0