File: ISoD/xrd_data/HSC077.xy
2.00000 3.000
2.04500 3.000
2.09000 5.000
2.13500 2.000
2.18000 3.000
2.22500 3.000
2.27000 2.000
2.31500 4.000
2.36000 4.000
2.40500 4.000
2.45000 3.000
2.49500 3.000
2.54000 1.000
2.58500 3.000
2.63000 6.000
2.67500 3.000
2.72000 1.000
2.76500 2.000
2.81000 1.000
2.85500 5.000
2.90000 4.000
2.94500 3.000
2.99000 3.000
3.03500 0.000
3.08000 3.000
3.12500 6.000
3.17000 19.000
3.21500 38.000
3.26000 99.000
3.30500 177.000
3.35000 265.000
3.39500 267.000
3.44000 242.000
3.48500 248.000
3.53000 262.000
3.57500 242.000
3.62000 248.000
3.66500 218.000
3.71000 226.000
3.75500 232.000
3.80000 219.000
3.84500 206.000
3.89000 228.000
3.93500 237.000
3.98000 207.000
4.02500 224.000
4.07000 265.000
4.11500 228.000
4.16000 237.000
4.20500 224.000
4.25000 227.000
4.29500 234.000
4.34000 216.000
4.38500 236.000
4.43000 223.000
4.47500 208.000
4.52000 220.000
4.56500 210.000
4.61000 225.000
4.65500 220.000
4.70000 227.000
4.74500 247.000
4.79000 208.000
4.83500 222.000
4.88000 229.000
4.92500 221.000
4.97000 218.000
5.01500 223.000
5.06000 225.000
5.10500 228.000
5.15000 241.000
5.19500 241.000
5.24000 226.000
5.28500 214.000
5.33000 215.000
5.37500 230.000
5.42000 229.000
5.46500 262.000
5.51000 261.000
5.55500 243.000
5.60000 252.000
5.64500 225.000
5.69000 252.000
5.73500 287.000
5.78000 252.000
5.82500 284.000
5.87000 300.000
5.91500 306.000
5.96000 332.000
6.00500 419.000
6.05000 394.000
6.09500 441.000
6.14000 547.000
6.18500 611.000
6.23000 767.000
6.27500 455.000
6.32000 343.000
6.36500 329.000
6.41000 270.000
6.45500 283.000
6.50000 261.000
6.54500 253.000
6.59000 235.000
6.63500 268.000
6.68000 261.000
6.72500 251.000
6.77000 246.000
6.81500 247.000
6.86000 244.000
6.90500 258.000
6.95000 241.000
6.99500 247.000
7.04000 249.000
7.08500 241.000
7.13000 271.000
7.17500 268.000
7.22000 258.000
7.26500 257.000
7.31000 242.000
7.35500 264.000
7.40000 259.000
7.44500 255.000
7.49000 268.000
7.53500 256.000
7.58000 253.000
7.62500 261.000
7.67000 286.000
7.71500 260.000
7.76000 238.000
7.80500 247.000
7.85000 264.000
7.89500 243.000
7.94000 245.000
7.98500 247.000
8.03000 256.000
8.07500 251.000
8.12000 279.000
8.16500 263.000
8.21000 249.000
8.25500 254.000
8.30000 275.000
8.34500 277.000
8.39000 284.000
8.43500 297.000
8.48000 299.000
8.52500 302.000
8.57000 322.000
8.61500 330.000
8.66000 313.000
8.70500 363.000
8.75000 336.000
8.79500 294.000
8.84000 336.000
8.88500 318.000
8.93000 323.000
8.97500 317.000
9.02000 320.000
9.06500 294.000
9.11000 280.000
9.15500 275.000
9.20000 282.000
9.24500 297.000
9.29000 270.000
9.33500 287.000
9.38000 277.000
9.42500 276.000
9.47000 275.000
9.51500 270.000
9.56000 296.000
9.60500 298.000
9.65000 313.000
9.69500 305.000
9.74000 307.000
9.78500 305.000
9.83000 316.000
9.87500 312.000
9.92000 317.000
9.96500 360.000
10.01000 386.000
10.05500 381.000
10.10000 398.000
10.14500 452.000
10.19000 467.000
10.23500 516.000
10.28000 604.000
10.32500 665.000
10.37000 765.000
10.41500 1012.000
10.46000 1063.000
10.50500 595.000
10.55000 628.000
10.59500 696.000
10.64000 621.000
10.68500 552.000
10.73000 505.000
10.77500 535.000
10.82000 595.000
10.86500 663.000
10.91000 784.000
10.95500 940.000
11.00000 1095.000
11.04500 951.000
11.09000 614.000
11.13500 475.000
11.18000 420.000
11.22500 391.000
11.27000 375.000
11.31500 332.000
11.36000 360.000
11.40500 356.000
11.45000 294.000
11.49500 321.000
11.54000 301.000
11.58500 294.000
11.63000 295.000
11.67500 285.000
11.72000 314.000
11.76500 302.000
11.81000 276.000
11.85500 293.000
11.90000 312.000
11.94500 276.000
11.99000 306.000
12.03500 293.000
12.08000 263.000
12.12500 305.000
12.17000 275.000
12.21500 301.000
12.26000 314.000
12.30500 312.000
12.35000 289.000
12.39500 306.000
12.44000 335.000
12.48500 378.000
12.53000 432.000
12.57500 475.000
12.62000 296.000
12.66500 293.000
12.71000 301.000
12.75500 306.000
12.80000 294.000
12.84500 300.000
12.89000 307.000
12.93500 281.000
12.98000 293.000
13.02500 280.000
13.07000 269.000
13.11500 278.000
13.16000 279.000
13.20500 282.000
13.25000 287.000
13.29500 283.000
13.34000 296.000
13.38500 254.000
13.43000 282.000
13.47500 264.000
13.52000 280.000
13.56500 290.000
13.61000 281.000
13.65500 301.000
13.70000 312.000
13.74500 293.000
13.79000 257.000
13.83500 290.000
13.88000 287.000
13.92500 287.000
13.97000 293.000
14.01500 282.000
14.06000 280.000
14.10500 317.000
14.15000 292.000
14.19500 283.000
14.24000 270.000
14.28500 286.000
14.33000 286.000
14.37500 279.000
14.42000 279.000
14.46500 271.000
14.51000 282.000
14.55500 292.000
14.60000 299.000
14.64500 291.000
14.69000 301.000
14.73500 277.000
14.78000 290.000
14.82500 309.000
14.87000 301.000
14.91500 288.000
14.96000 344.000
15.00500 325.000
15.05000 384.000
15.09500 300.000
15.14000 297.000
15.18500 307.000
15.23000 284.000
15.27500 298.000
15.32000 262.000
15.36500 305.000
15.41000 268.000
15.45500 317.000
15.50000 301.000
15.54500 311.000
15.59000 311.000
15.63500 308.000
15.68000 291.000
15.72500 280.000
15.77000 257.000
15.81500 301.000
15.86000 262.000
15.90500 291.000
15.95000 281.000
15.99500 286.000
16.04000 308.000
16.08500 305.000
16.13000 305.000
16.17500 263.000
16.22000 309.000
16.26500 284.000
16.31000 267.000
16.35500 266.000
16.40000 304.000
16.44500 293.000
16.49000 270.000
16.53500 276.000
16.58000 286.000
16.62500 305.000
16.67000 294.000
16.71500 306.000
16.76000 315.000
16.80500 330.000
16.85000 314.000
16.89500 314.000
16.94000 296.000
16.98500 309.000
17.03000 284.000
17.07500 318.000
17.12000 322.000
17.16500 310.000
17.21000 357.000
17.25500 327.000
17.30000 369.000
17.34500 354.000
17.39000 372.000
17.43500 361.000
17.48000 404.000
17.52500 381.000
17.57000 407.000
17.61500 401.000
17.66000 400.000
17.70500 338.000
17.75000 357.000
17.79500 329.000
17.84000 337.000
17.88500 387.000
17.93000 380.000
17.97500 363.000
18.02000 321.000
18.06500 291.000
18.11000 283.000
18.15500 314.000
18.20000 315.000
18.24500 289.000
18.29000 321.000
18.33500 314.000
18.38000 336.000
18.42500 301.000
18.47000 336.000
18.51500 353.000
18.56000 366.000
18.60500 383.000
18.65000 406.000
18.69500 533.000
18.74000 698.000
18.78500 552.000
18.83000 455.000
18.87500 442.000
18.92000 421.000
18.96500 409.000
19.01000 410.000
19.05500 399.000
19.10000 471.000
19.14500 476.000
19.19000 514.000
19.23500 724.000
19.28000 764.000
19.32500 418.000
19.37000 369.000
19.41500 341.000
19.46000 314.000
19.50500 287.000
19.55000 316.000
19.59500 327.000
19.64000 301.000
19.68500 311.000
19.73000 317.000
19.77500 314.000
19.82000 320.000
19.86500 327.000
19.91000 300.000
19.95500 308.000
20.00000 294.000
20.04500 310.000
20.09000 338.000
20.13500 319.000
20.18000 298.000
20.22500 301.000
20.27000 315.000
20.31500 306.000
20.36000 337.000
20.40500 319.000
20.45000 300.000
20.49500 332.000
20.54000 322.000
20.58500 293.000
20.63000 305.000
20.67500 305.000
20.72000 337.000
20.76500 316.000
20.81000 299.000
20.85500 353.000
20.90000 338.000
20.94500 378.000
20.99000 388.000
21.03500 389.000
21.08000 385.000
21.12500 386.000
21.17000 382.000
21.21500 355.000
21.26000 354.000
21.30500 345.000
21.35000 321.000
21.39500 316.000
21.44000 328.000
21.48500 344.000
21.53000 348.000
21.57500 321.000
21.62000 315.000
21.66500 345.000
21.71000 323.000
21.75500 307.000
21.80000 316.000
21.84500 290.000
21.89000 327.000
21.93500 338.000
21.98000 323.000
22.02500 312.000
22.07000 288.000
22.11500 300.000
22.16000 322.000
22.20500 309.000
22.25000 332.000
22.29500 308.000
22.34000 283.000
22.38500 318.000
22.43000 312.000
22.47500 324.000
22.52000 295.000
22.56500 319.000
22.61000 318.000
22.65500 356.000
22.70000 336.000
22.74500 327.000
22.79000 340.000
22.83500 340.000
22.88000 319.000
22.92500 327.000
22.97000 310.000
23.01500 333.000
23.06000 359.000
23.10500 301.000
23.15000 326.000
23.19500 320.000
23.24000 306.000
23.28500 308.000
23.33000 315.000
23.37500 340.000
23.42000 322.000
23.46500 321.000
23.51000 349.000
23.55500 348.000
23.60000 329.000
23.64500 317.000
23.69000 333.000
23.73500 309.000
23.78000 333.000
23.82500 317.000
23.87000 321.000
23.91500 333.000
23.96000 321.000
24.00500 337.000
24.05000 321.000
24.09500 288.000
24.14000 342.000
24.18500 341.000
24.23000 334.000
24.27500 317.000
24.32000 405.000
24.36500 436.000
24.41000 399.000
24.45500 474.000
24.50000 622.000
24.54500 593.000
24.59000 457.000
24.63500 407.000
24.68000 393.000
24.72500 383.000
24.77000 405.000
24.81500 405.000
24.86000 428.000
24.90500 412.000
24.95000 426.000
24.99500 453.000
25.04000 482.000
25.08500 572.000
25.13000 513.000
25.17500 492.000
25.22000 513.000
25.26500 498.000
25.31000 509.000
25.35500 538.000
25.40000 558.000
25.44500 635.000
25.49000 691.000
25.53500 830.000
25.58000 741.000
25.62500 680.000
25.67000 650.000
25.71500 670.000
25.76000 652.000
25.80500 744.000
25.85000 619.000
25.89500 520.000
25.94000 475.000
25.98500 477.000
26.03000 533.000
26.07500 579.000
26.12000 565.000
26.16500 513.000
26.21000 459.000
26.25500 472.000
26.30000 459.000
26.34500 434.000
26.39000 485.000
26.43500 517.000
26.48000 658.000
26.52500 740.000
26.57000 957.000
26.61500 1045.000
26.66000 668.000
26.70500 552.000
26.75000 456.000
26.79500 457.000
26.84000 434.000
26.88500 436.000
26.93000 451.000
26.97500 448.000
27.02000 441.000
27.06500 410.000
27.11000 417.000
27.15500 437.000
27.20000 435.000
27.24500 432.000
27.29000 455.000
27.33500 468.000
27.38000 484.000
27.42500 523.000
27.47000 607.000
27.51500 770.000
27.56000 990.000
27.60500 1235.000
27.65000 990.000
27.69500 832.000
27.74000 965.000
27.78500 925.000
27.83000 956.000
27.87500 1030.000
27.92000 1145.000
27.96500 1265.000
28.01000 1473.000
28.05500 1663.000
28.10000 1985.000
28.14500 1688.000
28.19000 1178.000
28.23500 983.000
28.28000 829.000
28.32500 783.000
28.37000 696.000
28.41500 577.000
28.46000 539.000
28.50500 504.000
28.55000 471.000
28.59500 449.000
28.64000 468.000
28.68500 372.000
28.73000 400.000
28.77500 368.000
28.82000 382.000
28.86500 356.000
28.91000 340.000
28.95500 333.000
29.00000 332.000
29.04500 335.000
29.09000 331.000
29.13500 333.000
29.18000 339.000
29.22500 327.000
29.27000 343.000
29.31500 365.000
29.36000 389.000
29.40500 465.000
29.45000 377.000
29.49500 345.000
29.54000 390.000
29.58500 353.000
29.63000 352.000
29.67500 388.000
29.72000 340.000
29.76500 331.000
29.81000 364.000
29.85500 363.000
29.90000 387.000
29.94500 327.000
29.99000 305.000
30.03500 330.000
30.08000 335.000
30.12500 366.000
30.17000 366.000
30.21500 346.000
30.26000 343.000
30.30500 343.000
30.35000 383.000
30.39500 601.000
30.44000 750.000
30.48500 613.000
30.53000 450.000
30.57500 340.000
30.62000 301.000
30.66500 295.000
30.71000 302.000
30.75500 288.000
30.80000 276.000
30.84500 267.000
30.89000 313.000
30.93500 301.000
30.98000 329.000
31.02500 279.000
31.07000 288.000
31.11500 265.000
31.16000 260.000
31.20500 277.000
31.25000 257.000
31.29500 249.000
31.34000 270.000
31.38500 284.000
31.43000 273.000
31.47500 303.000
31.52000 292.000
31.56500 276.000
31.61000 333.000
31.65500 311.000
31.70000 285.000
31.74500 277.000
31.79000 260.000
31.83500 254.000
31.88000 258.000
31.92500 265.000
31.97000 289.000
32.01500 333.000
32.06000 287.000
32.10500 257.000
32.15000 239.000
32.19500 277.000
32.24000 261.000
32.28500 252.000
32.33000 243.000
32.37500 231.000
32.42000 258.000
32.46500 261.000
32.51000 262.000
32.55500 263.000
32.60000 279.000
32.64500 328.000
32.69000 286.000
32.73500 231.000
32.78000 261.000
32.82500 248.000
32.87000 229.000
32.91500 230.000
32.96000 241.000
33.00500 239.000
33.05000 251.000
33.09500 243.000
33.14000 268.000
33.18500 236.000
33.23000 234.000
33.27500 238.000
33.32000 270.000
33.36500 266.000
33.41000 277.000
33.45500 268.000
33.50000 247.000
33.54500 256.000
33.59000 261.000
33.63500 262.000
33.68000 310.000
33.72500 374.000
33.77000 315.000
33.81500 275.000
33.86000 267.000
33.90500 280.000
33.95000 320.000
33.99500 310.000
34.04000 272.000
34.08500 269.000
34.13000 255.000
34.17500 267.000
34.22000 263.000
34.26500 240.000
34.31000 242.000
34.35500 250.000
34.40000 256.000
34.44500 235.000
34.49000 252.000
34.53500 211.000
34.58000 218.000
34.62500 211.000
34.67000 222.000
34.71500 193.000
34.76000 189.000
34.80500 215.000
34.85000 199.000
34.89500 205.000
34.94000 210.000
34.98500 221.000
35.03000 207.000
35.07500 219.000
35.12000 203.000
35.16500 199.000
35.21000 201.000
35.25500 223.000
35.30000 217.000
35.34500 253.000
35.39000 224.000
35.43500 207.000
35.48000 211.000
35.52500 201.000
35.57000 212.000
35.61500 221.000
35.66000 200.000
35.70500 225.000
35.75000 261.000
35.79500 311.000
35.84000 298.000
35.88500 228.000
35.93000 224.000
35.97500 250.000
36.02000 195.000
36.06500 195.000
36.11000 173.000
36.15500 173.000
36.20000 162.000
36.24500 171.000
36.29000 167.000
36.33500 199.000
36.38000 199.000
36.42500 191.000
36.47000 216.000
36.51500 196.000
36.56000 194.000
36.60500 215.000
36.65000 185.000
36.69500 205.000
36.74000 208.000
36.78500 183.000
36.83000 188.000
36.87500 194.000
36.92000 173.000
36.96500 193.000
37.01000 187.000
37.05500 190.000
37.10000 198.000
37.14500 173.000
37.19000 196.000
37.23500 151.000
37.28000 202.000
37.32500 194.000
37.37000 183.000
37.41500 182.000
37.46000 200.000
37.50500 184.000
37.55000 222.000
37.59500 212.000
37.64000 182.000
37.68500 188.000
37.73000 174.000
37.77500 194.000
37.82000 178.000
37.86500 179.000
37.91000 190.000
37.95500 187.000
38.00000 180.000
38.04500 181.000
38.09000 177.000
38.13500 187.000
38.18000 174.000
38.22500 182.000
38.27000 185.000
38.31500 187.000
38.36000 178.000
38.40500 184.000
38.45000 211.000
38.49500 177.000
38.54000 189.000
38.58500 221.000
38.63000 188.000
38.67500 204.000
38.72000 193.000
38.76500 247.000
38.81000 280.000
38.85500 282.000
38.90000 227.000
38.94500 210.000
38.99000 215.000
39.03500 220.000
39.08000 244.000
39.12500 176.000
39.17000 192.000
39.21500 188.000
39.26000 193.000
39.30500 177.000
39.35000 217.000
39.39500 244.000
39.44000 230.000
39.48500 217.000
39.53000 200.000
39.57500 186.000
39.62000 187.000
39.66500 177.000
39.71000 156.000
39.75500 182.000
39.80000 177.000
39.84500 168.000
39.89000 159.000
39.93500 151.000
39.98000 173.000
40.02500 148.000
40.07000 155.000
40.11500 169.000
40.16000 167.000
40.20500 168.000
40.25000 154.000
40.29500 149.000
40.34000 153.000
40.38500 171.000
40.43000 164.000
40.47500 196.000
40.52000 198.000
40.56500 185.000
40.61000 186.000
40.65500 165.000
40.70000 184.000
40.74500 165.000
40.79000 212.000
40.83500 216.000
40.88000 199.000
40.92500 168.000
40.97000 163.000
41.01500 155.000
41.06000 146.000
41.10500 169.000
41.15000 155.000
41.19500 155.000
41.24000 153.000
41.28500 149.000
41.33000 160.000
41.37500 158.000
41.42000 145.000
41.46500 158.000
41.51000 145.000
41.55500 157.000
41.60000 174.000
41.64500 153.000
41.69000 146.000
41.73500 151.000
41.78000 159.000
41.82500 171.000
41.87000 163.000
41.91500 160.000
41.96000 168.000
42.00500 156.000
42.05000 143.000
42.09500 165.000
42.14000 190.000
42.18500 173.000
42.23000 204.000
42.27500 181.000
42.32000 169.000
42.36500 183.000
42.41000 167.000
42.45500 188.000
42.50000 163.000
42.54500 165.000
42.59000 172.000
42.63500 156.000
42.68000 161.000
42.72500 156.000
42.77000 167.000
42.81500 175.000
42.86000 170.000
42.90500 179.000
42.95000 162.000
42.99500 168.000
43.04000 172.000
43.08500 177.000
43.13000 175.000
43.17500 195.000
43.22000 176.000
43.26500 178.000
43.31000 189.000
43.35500 182.000
43.40000 172.000
43.44500 144.000
43.49000 149.000
43.53500 150.000
43.58000 138.000
43.62500 161.000
43.67000 136.000
43.71500 160.000
43.76000 149.000
43.80500 134.000
43.85000 161.000
43.89500 150.000
43.94000 133.000
43.98500 153.000
44.03000 131.000
44.07500 148.000
44.12000 161.000
44.16500 178.000
44.21000 157.000
44.25500 170.000
44.30000 170.000
44.34500 150.000
44.39000 145.000
44.43500 151.000
44.48000 159.000
44.52500 152.000
44.57000 146.000
44.61500 136.000
44.66000 191.000
44.70500 155.000
44.75000 167.000
44.79500 159.000
44.84000 170.000
44.88500 166.000
44.93000 164.000
44.97500 154.000
45.02000 176.000
45.06500 156.000
45.11000 164.000
45.15500 153.000
45.20000 151.000
45.24500 138.000
45.29000 160.000
45.33500 146.000
45.38000 166.000
45.42500 171.000
45.47000 188.000
45.51500 174.000
45.56000 153.000
45.60500 150.000
45.65000 152.000
45.69500 139.000
45.74000 158.000
45.78500 161.000
45.83000 162.000
45.87500 125.000
45.92000 166.000
45.96500 137.000
46.01000 150.000
46.05500 131.000
46.10000 154.000
46.14500 136.000
46.19000 169.000
46.23500 163.000
46.28000 169.000
46.32500 139.000
46.37000 138.000
46.41500 131.000
46.46000 118.000
46.50500 138.000
46.55000 124.000
46.59500 127.000
46.64000 127.000
46.68500 136.000
46.73000 136.000
46.77500 146.000
46.82000 145.000
46.86500 141.000
46.91000 131.000
46.95500 135.000
47.00000 170.000
47.04500 186.000
47.09000 152.000
47.13500 172.000
47.18000 131.000
47.22500 139.000
47.27000 133.000
47.31500 127.000
47.36000 127.000
47.40500 136.000
47.45000 132.000
47.49500 145.000
47.54000 151.000
47.58500 157.000
47.63000 141.000
47.67500 143.000
47.72000 155.000
47.76500 147.000
47.81000 143.000
47.85500 149.000
47.90000 179.000
47.94500 172.000
47.99000 148.000
48.03500 129.000
48.08000 141.000
48.12500 117.000
48.17000 139.000
48.21500 146.000
48.26000 138.000
48.30500 131.000
48.35000 135.000
48.39500 134.000
48.44000 149.000
48.48500 151.000
48.53000 146.000
48.57500 153.000
48.62000 122.000
48.66500 138.000
48.71000 133.000
48.75500 112.000
48.80000 126.000
48.84500 127.000
48.89000 144.000
48.93500 135.000
48.98000 144.000
49.02500 159.000
49.07000 149.000
49.11500 147.000
49.16000 139.000
49.20500 131.000
49.25000 132.000
49.29500 147.000
49.34000 131.000
49.38500 139.000
49.43000 129.000
49.47500 140.000
49.52000 129.000
49.56500 133.000
49.61000 133.000
49.65500 117.000
49.70000 124.000
49.74500 128.000
49.79000 136.000
49.83500 154.000
49.88000 141.000
49.92500 148.000
49.97000 141.000
50.01500 146.000
50.06000 139.000
50.10500 138.000
50.15000 144.000
50.19500 136.000
50.24000 135.000
50.28500 130.000
50.33000 122.000
50.37500 133.000
50.42000 138.000
50.46500 139.000
50.51000 146.000
50.55500 144.000
50.60000 151.000
50.64500 131.000
50.69000 146.000
50.73500 138.000
50.78000 146.000
50.82500 130.000
50.87000 117.000
50.91500 104.000
50.96000 136.000
51.00500 118.000
51.05000 114.000
51.09500 125.000
51.14000 123.000
51.18500 130.000
51.23000 128.000
51.27500 132.000
51.32000 137.000
51.36500 122.000
51.41000 122.000
51.45500 136.000
51.50000 127.000
51.54500 146.000
51.59000 128.000
51.63500 136.000
51.68000 144.000
51.72500 109.000
51.77000 122.000
51.81500 134.000
51.86000 120.000
51.90500 135.000
51.95000 124.000
51.99500 135.000
52.04000 128.000
52.08500 139.000
52.13000 123.000
52.17500 150.000
52.22000 143.000
52.26500 177.000
52.31000 160.000
52.35500 161.000
52.40000 143.000
52.44500 142.000
52.49000 132.000
52.53500 141.000
52.58000 127.000
52.62500 127.000
52.67000 114.000
52.71500 142.000
52.76000 150.000
52.80500 136.000
52.85000 133.000
52.89500 159.000
52.94000 153.000
52.98500 161.000
53.03000 138.000
53.07500 140.000
53.12000 108.000
53.16500 129.000
53.21000 131.000
53.25500 130.000
53.30000 147.000
53.34500 161.000
53.39000 156.000
53.43500 142.000
53.48000 147.000
53.52500 159.000
53.57000 134.000
53.61500 145.000
53.66000 122.000
53.70500 131.000
53.75000 136.000
53.79500 147.000
53.84000 166.000
53.88500 145.000
53.93000 177.000
53.97500 177.000
54.02000 169.000
54.06500 153.000
54.11000 157.000
54.15500 157.000
54.20000 151.000
54.24500 133.000
54.29000 148.000
54.33500 137.000
54.38000 128.000
54.42500 127.000
54.47000 137.000
54.51500 139.000
54.56000 144.000
54.60500 128.000
54.65000 137.000
54.69500 136.000
54.74000 143.000
54.78500 162.000
54.83000 137.000
54.87500 128.000
54.92000 132.000
54.96500 124.000
55.01000 143.000
55.05500 132.000
55.10000 134.000
55.14500 127.000
55.19000 128.000
55.23500 113.000
55.28000 133.000
55.32500 133.000
55.37000 131.000
55.41500 109.000
55.46000 124.000
55.50500 136.000
55.55000 133.000
55.59500 132.000
55.64000 128.000
55.68500 151.000
55.73000 173.000
55.77500 125.000
55.82000 145.000
55.86500 124.000
55.91000 107.000
55.95500 121.000
56.00000 128.000
56.04500 139.000
56.09000 131.000
56.13500 139.000
56.18000 114.000
56.22500 112.000
56.27000 112.000
56.31500 113.000
56.36000 140.000
56.40500 113.000
56.45000 122.000
56.49500 126.000
56.54000 115.000
56.58500 133.000
56.63000 125.000
56.67500 119.000
56.72000 131.000
56.76500 125.000
56.81000 129.000
56.85500 117.000
56.90000 131.000
56.94500 127.000
56.99000 120.000
57.03500 114.000
57.08000 137.000
57.12500 107.000
57.17000 134.000
57.21500 117.000
57.26000 122.000
57.30500 115.000
57.35000 119.000
57.39500 119.000
57.44000 143.000
57.48500 127.000
57.53000 121.000
57.57500 143.000
57.62000 134.000
57.66500 128.000
57.71000 138.000
57.75500 132.000
57.80000 127.000
57.84500 133.000
57.89000 115.000
57.93500 146.000
57.98000 113.000
58.02500 144.000
58.07000 143.000
58.11500 141.000
58.16000 136.000
58.20500 136.000
58.25000 142.000
58.29500 138.000
58.34000 135.000
58.38500 135.000
58.43000 140.000
58.47500 141.000
58.52000 135.000
58.56500 122.000
58.61000 141.000
58.65500 158.000
58.70000 128.000
58.74500 126.000
58.79000 104.000
58.83500 128.000
58.88000 113.000
58.92500 125.000
58.97000 109.000
59.01500 115.000
59.06000 125.000
59.10500 95.000
59.15000 116.000
59.19500 119.000
59.24000 105.000
59.28500 101.000
59.33000 108.000
59.37500 107.000
59.42000 121.000
59.46500 99.000
59.51000 109.000
59.55500 112.000
59.60000 111.000
59.64500 100.000
59.69000 106.000
59.73500 116.000
59.78000 109.000
59.82500 114.000
59.87000 112.000
59.91500 123.000
59.96000 114.000
60.00500 112.000
60.05000 119.000
60.09500 96.000
60.14000 101.000
60.18500 103.000
60.23000 114.000
60.27500 113.000
60.32000 114.000
60.36500 93.000
60.41000 117.000
60.45500 105.000
60.50000 103.000
60.54500 112.000
60.59000 119.000
60.63500 118.000
60.68000 108.000
60.72500 116.000
60.77000 109.000
60.81500 109.000
60.86000 98.000
60.90500 111.000
60.95000 100.000
60.99500 104.000
61.04000 105.000
61.08500 103.000
61.13000 100.000
61.17500 111.000
61.22000 100.000
61.26500 82.000
61.31000 94.000
61.35500 100.000
61.40000 107.000
61.44500 105.000
61.49000 112.000
61.53500 94.000
61.58000 118.000
61.62500 95.000
61.67000 95.000
61.71500 85.000
61.76000 100.000
61.80500 116.000
61.85000 94.000
61.89500 113.000
61.94000 100.000
61.98500 107.000