File: ISoD/xrd_data/HSC026_nach410C_range_2.xy
2.00000 712.000
2.04500 683.000
2.09000 637.000
2.13500 609.000
2.18000 574.000
2.22500 576.000
2.27000 483.000
2.31500 486.000
2.36000 431.000
2.40500 416.000
2.45000 417.000
2.49500 403.000
2.54000 358.000
2.58500 370.000
2.63000 340.000
2.67500 357.000
2.72000 306.000
2.76500 306.000
2.81000 293.000
2.85500 291.000
2.90000 295.000
2.94500 275.000
2.99000 258.000
3.03500 267.000
3.08000 272.000
3.12500 260.000
3.17000 243.000
3.21500 236.000
3.26000 225.000
3.30500 227.000
3.35000 243.000
3.39500 216.000
3.44000 194.000
3.48500 206.000
3.53000 224.000
3.57500 197.000
3.62000 196.000
3.66500 207.000
3.71000 214.000
3.75500 204.000
3.80000 188.000
3.84500 197.000
3.89000 197.000
3.93500 197.000
3.98000 170.000
4.02500 185.000
4.07000 177.000
4.11500 181.000
4.16000 208.000
4.20500 196.000
4.25000 190.000
4.29500 181.000
4.34000 194.000
4.38500 186.000
4.43000 189.000
4.47500 176.000
4.52000 176.000
4.56500 194.000
4.61000 177.000
4.65500 150.000
4.70000 149.000
4.74500 159.000
4.79000 164.000
4.83500 170.000
4.88000 169.000
4.92500 165.000
4.97000 186.000
5.01500 162.000
5.06000 178.000
5.10500 151.000
5.15000 164.000
5.19500 163.000
5.24000 167.000
5.28500 179.000
5.33000 146.000
5.37500 174.000
5.42000 197.000
5.46500 145.000
5.51000 170.000
5.55500 172.000
5.60000 164.000
5.64500 186.000
5.69000 164.000
5.73500 169.000
5.78000 201.000
5.82500 166.000
5.87000 174.000
5.91500 161.000
5.96000 173.000
6.00500 179.000
6.05000 183.000
6.09500 165.000
6.14000 149.000
6.18500 174.000
6.23000 152.000
6.27500 168.000
6.32000 175.000
6.36500 159.000
6.41000 167.000
6.45500 158.000
6.50000 172.000
6.54500 178.000
6.59000 173.000
6.63500 167.000
6.68000 165.000
6.72500 157.000
6.77000 163.000
6.81500 172.000
6.86000 160.000
6.90500 158.000
6.95000 163.000
6.99500 167.000
7.04000 157.000
7.08500 168.000
7.13000 165.000
7.17500 173.000
7.22000 180.000
7.26500 155.000
7.31000 165.000
7.35500 186.000
7.40000 154.000
7.44500 170.000
7.49000 154.000
7.53500 170.000
7.58000 172.000
7.62500 176.000
7.67000 170.000
7.71500 191.000
7.76000 179.000
7.80500 160.000
7.85000 177.000
7.89500 163.000
7.94000 182.000
7.98500 173.000
8.03000 171.000
8.07500 176.000
8.12000 205.000
8.16500 179.000
8.21000 166.000
8.25500 191.000
8.30000 191.000
8.34500 229.000
8.39000 224.000
8.43500 226.000
8.48000 227.000
8.52500 242.000
8.57000 231.000
8.61500 260.000
8.66000 250.000
8.70500 248.000
8.75000 235.000
8.79500 204.000
8.84000 207.000
8.88500 202.000
8.93000 200.000
8.97500 197.000
9.02000 179.000
9.06500 154.000
9.11000 171.000
9.15500 189.000
9.20000 195.000
9.24500 183.000
9.29000 186.000
9.33500 173.000
9.38000 169.000
9.42500 169.000
9.47000 185.000
9.51500 174.000
9.56000 166.000
9.60500 189.000
9.65000 171.000
9.69500 176.000
9.74000 175.000
9.78500 187.000
9.83000 164.000
9.87500 185.000
9.92000 186.000
9.96500 203.000
10.01000 202.000
10.05500 183.000
10.10000 207.000
10.14500 185.000
10.19000 180.000
10.23500 183.000
10.28000 165.000
10.32500 174.000
10.37000 171.000
10.41500 203.000
10.46000 165.000
10.50500 194.000
10.55000 190.000
10.59500 199.000
10.64000 207.000
10.68500 199.000
10.73000 200.000
10.77500 197.000
10.82000 186.000
10.86500 180.000
10.91000 199.000
10.95500 211.000
11.00000 216.000
11.04500 219.000
11.09000 229.000
11.13500 259.000
11.18000 265.000
11.22500 318.000
11.27000 304.000
11.31500 358.000
11.36000 415.000
11.40500 468.000
11.45000 512.000
11.49500 615.000
11.54000 664.000
11.58500 654.000
11.63000 636.000
11.67500 573.000
11.72000 517.000
11.76500 462.000
11.81000 448.000
11.85500 423.000
11.90000 425.000
11.94500 387.000
11.99000 358.000
12.03500 318.000
12.08000 256.000
12.12500 199.000
12.17000 206.000
12.21500 189.000
12.26000 199.000
12.30500 179.000
12.35000 183.000
12.39500 184.000
12.44000 177.000
12.48500 199.000
12.53000 202.000
12.57500 210.000
12.62000 205.000
12.66500 211.000
12.71000 208.000
12.75500 191.000
12.80000 236.000
12.84500 245.000
12.89000 245.000
12.93500 249.000
12.98000 226.000
13.02500 246.000
13.07000 221.000
13.11500 204.000
13.16000 214.000
13.20500 231.000
13.25000 239.000
13.29500 229.000
13.34000 194.000
13.38500 216.000
13.43000 196.000
13.47500 192.000
13.52000 181.000
13.56500 191.000
13.61000 189.000
13.65500 171.000
13.70000 169.000
13.74500 173.000
13.79000 168.000
13.83500 186.000
13.88000 178.000
13.92500 191.000
13.97000 166.000
14.01500 181.000
14.06000 191.000
14.10500 167.000
14.15000 181.000
14.19500 192.000
14.24000 171.000
14.28500 166.000
14.33000 167.000
14.37500 153.000
14.42000 171.000
14.46500 149.000
14.51000 172.000
14.55500 192.000
14.60000 153.000
14.64500 153.000
14.69000 170.000
14.73500 156.000
14.78000 176.000
14.82500 163.000
14.87000 167.000
14.91500 165.000
14.96000 170.000
15.00500 174.000
15.05000 158.000
15.09500 163.000
15.14000 165.000
15.18500 171.000
15.23000 150.000
15.27500 169.000
15.32000 161.000
15.36500 168.000
15.41000 152.000
15.45500 176.000
15.50000 172.000
15.54500 177.000
15.59000 176.000
15.63500 155.000
15.68000 199.000
15.72500 164.000
15.77000 173.000
15.81500 163.000
15.86000 174.000
15.90500 162.000
15.95000 148.000
15.99500 161.000
16.04000 183.000
16.08500 183.000
16.13000 197.000
16.17500 163.000
16.22000 209.000
16.26500 182.000
16.31000 174.000
16.35500 179.000
16.40000 165.000
16.44500 164.000
16.49000 183.000
16.53500 176.000
16.58000 169.000
16.62500 157.000
16.67000 182.000
16.71500 166.000
16.76000 169.000
16.80500 152.000
16.85000 178.000
16.89500 185.000
16.94000 204.000
16.98500 172.000
17.03000 179.000
17.07500 192.000
17.12000 175.000
17.16500 184.000
17.21000 173.000
17.25500 153.000
17.30000 178.000
17.34500 163.000
17.39000 189.000
17.43500 166.000
17.48000 171.000
17.52500 164.000
17.57000 171.000
17.61500 188.000
17.66000 164.000
17.70500 181.000
17.75000 192.000
17.79500 164.000
17.84000 182.000
17.88500 193.000
17.93000 181.000
17.97500 194.000
18.02000 177.000
18.06500 196.000
18.11000 195.000
18.15500 196.000
18.20000 200.000
18.24500 195.000
18.29000 183.000
18.33500 204.000
18.38000 174.000
18.42500 184.000
18.47000 188.000
18.51500 215.000
18.56000 191.000
18.60500 205.000
18.65000 193.000
18.69500 214.000
18.74000 198.000
18.78500 193.000
18.83000 210.000
18.87500 208.000
18.92000 200.000
18.96500 202.000
19.01000 190.000
19.05500 214.000
19.10000 197.000
19.14500 208.000
19.19000 219.000
19.23500 204.000
19.28000 198.000
19.32500 207.000
19.37000 196.000
19.41500 212.000
19.46000 214.000
19.50500 200.000
19.55000 205.000
19.59500 236.000
19.64000 201.000
19.68500 210.000
19.73000 214.000
19.77500 207.000
19.82000 231.000
19.86500 211.000
19.91000 215.000
19.95500 220.000
20.00000 217.000
20.04500 216.000
20.09000 206.000
20.13500 230.000
20.18000 220.000
20.22500 215.000
20.27000 216.000
20.31500 233.000
20.36000 222.000
20.40500 209.000
20.45000 203.000
20.49500 219.000
20.54000 208.000
20.58500 219.000
20.63000 210.000
20.67500 197.000
20.72000 209.000
20.76500 219.000
20.81000 215.000
20.85500 213.000
20.90000 200.000
20.94500 223.000
20.99000 208.000
21.03500 238.000
21.08000 230.000
21.12500 208.000
21.17000 206.000
21.21500 221.000
21.26000 215.000
21.30500 215.000
21.35000 253.000
21.39500 206.000
21.44000 208.000
21.48500 238.000
21.53000 227.000
21.57500 221.000
21.62000 211.000
21.66500 232.000
21.71000 227.000
21.75500 214.000
21.80000 235.000
21.84500 192.000
21.89000 224.000
21.93500 231.000
21.98000 226.000
22.02500 209.000
22.07000 230.000
22.11500 230.000
22.16000 227.000
22.20500 242.000
22.25000 226.000
22.29500 250.000
22.34000 238.000
22.38500 225.000
22.43000 207.000
22.47500 247.000
22.52000 224.000
22.56500 226.000
22.61000 214.000
22.65500 228.000
22.70000 231.000
22.74500 227.000
22.79000 233.000
22.83500 251.000
22.88000 233.000
22.92500 224.000
22.97000 243.000
23.01500 250.000
23.06000 227.000
23.10500 280.000
23.15000 239.000
23.19500 285.000
23.24000 254.000
23.28500 235.000
23.33000 251.000
23.37500 252.000
23.42000 247.000
23.46500 264.000
23.51000 261.000
23.55500 277.000
23.60000 264.000
23.64500 237.000
23.69000 254.000
23.73500 246.000
23.78000 275.000
23.82500 264.000
23.87000 259.000
23.91500 245.000
23.96000 273.000
24.00500 253.000
24.05000 263.000
24.09500 259.000
24.14000 272.000
24.18500 278.000
24.23000 254.000
24.27500 286.000
24.32000 252.000
24.36500 282.000
24.41000 287.000
24.45500 280.000
24.50000 257.000
24.54500 296.000
24.59000 273.000
24.63500 273.000
24.68000 290.000
24.72500 330.000
24.77000 305.000
24.81500 337.000
24.86000 296.000
24.90500 317.000
24.95000 352.000
24.99500 374.000
25.04000 335.000
25.08500 388.000
25.13000 380.000
25.17500 411.000
25.22000 392.000
25.26500 429.000
25.31000 416.000
25.35500 447.000
25.40000 526.000
25.44500 509.000
25.49000 583.000
25.53500 598.000
25.58000 562.000
25.62500 547.000
25.67000 544.000
25.71500 532.000
25.76000 446.000
25.80500 451.000
25.85000 453.000
25.89500 397.000
25.94000 355.000
25.98500 381.000
26.03000 353.000
26.07500 328.000
26.12000 369.000
26.16500 347.000
26.21000 378.000
26.25500 355.000
26.30000 324.000
26.34500 364.000
26.39000 343.000
26.43500 367.000
26.48000 359.000
26.52500 374.000
26.57000 366.000
26.61500 390.000
26.66000 373.000
26.70500 352.000
26.75000 376.000
26.79500 354.000
26.84000 362.000
26.88500 365.000
26.93000 409.000
26.97500 393.000
27.02000 422.000
27.06500 502.000
27.11000 487.000
27.15500 515.000
27.20000 504.000
27.24500 567.000
27.29000 565.000
27.33500 559.000
27.38000 594.000
27.42500 600.000
27.47000 641.000
27.51500 599.000
27.56000 624.000
27.60500 557.000
27.65000 513.000
27.69500 452.000
27.74000 410.000
27.78500 356.000
27.83000 336.000
27.87500 305.000
27.92000 330.000
27.96500 288.000
28.01000 269.000
28.05500 284.000
28.10000 284.000
28.14500 249.000
28.19000 244.000
28.23500 256.000
28.28000 229.000
28.32500 218.000
28.37000 204.000
28.41500 238.000
28.46000 256.000
28.50500 232.000
28.55000 223.000
28.59500 228.000
28.64000 219.000
28.68500 225.000
28.73000 202.000
28.77500 228.000
28.82000 238.000
28.86500 201.000
28.91000 213.000
28.95500 207.000
29.00000 208.000
29.04500 239.000
29.09000 206.000
29.13500 212.000
29.18000 195.000
29.22500 202.000
29.27000 231.000
29.31500 214.000
29.36000 218.000
29.40500 211.000
29.45000 210.000
29.49500 191.000
29.54000 218.000
29.58500 209.000
29.63000 193.000
29.67500 204.000
29.72000 214.000
29.76500 212.000
29.81000 224.000
29.85500 216.000
29.90000 199.000
29.94500 197.000
29.99000 220.000
30.03500 204.000
30.08000 203.000
30.12500 220.000
30.17000 215.000
30.21500 235.000
30.26000 250.000
30.30500 239.000
30.35000 255.000
30.39500 256.000
30.44000 253.000
30.48500 255.000
30.53000 231.000
30.57500 235.000
30.62000 239.000
30.66500 225.000
30.71000 223.000
30.75500 231.000
30.80000 222.000
30.84500 215.000
30.89000 219.000
30.93500 208.000
30.98000 196.000
31.02500 185.000
31.07000 196.000
31.11500 184.000
31.16000 223.000
31.20500 173.000
31.25000 193.000
31.29500 170.000
31.34000 180.000
31.38500 166.000
31.43000 188.000
31.47500 168.000
31.52000 207.000
31.56500 166.000
31.61000 189.000
31.65500 174.000
31.70000 187.000
31.74500 156.000
31.79000 177.000
31.83500 152.000
31.88000 164.000
31.92500 170.000
31.97000 152.000
32.01500 165.000
32.06000 167.000
32.10500 160.000
32.15000 187.000
32.19500 177.000
32.24000 160.000
32.28500 168.000
32.33000 172.000
32.37500 162.000
32.42000 158.000
32.46500 160.000
32.51000 160.000
32.55500 160.000
32.60000 155.000
32.64500 156.000
32.69000 151.000
32.73500 167.000
32.78000 140.000
32.82500 173.000
32.87000 172.000
32.91500 139.000
32.96000 159.000
33.00500 148.000
33.05000 146.000
33.09500 144.000
33.14000 137.000
33.18500 160.000
33.23000 159.000
33.27500 155.000
33.32000 163.000
33.36500 146.000
33.41000 146.000
33.45500 164.000
33.50000 151.000
33.54500 174.000
33.59000 159.000
33.63500 128.000
33.68000 152.000
33.72500 149.000
33.77000 136.000
33.81500 153.000
33.86000 153.000
33.90500 146.000
33.95000 141.000
33.99500 136.000
34.04000 149.000
34.08500 132.000
34.13000 143.000
34.17500 147.000
34.22000 132.000
34.26500 137.000
34.31000 151.000
34.35500 138.000
34.40000 151.000
34.44500 124.000
34.49000 148.000
34.53500 135.000
34.58000 147.000
34.62500 138.000
34.67000 157.000
34.71500 140.000
34.76000 135.000
34.80500 136.000
34.85000 127.000
34.89500 131.000
34.94000 132.000
34.98500 119.000
35.03000 147.000
35.07500 136.000
35.12000 136.000
35.16500 126.000
35.21000 131.000
35.25500 134.000
35.30000 147.000
35.34500 142.000
35.39000 117.000
35.43500 112.000
35.48000 129.000
35.52500 140.000
35.57000 123.000
35.61500 139.000
35.66000 123.000
35.70500 117.000
35.75000 135.000
35.79500 103.000
35.84000 121.000
35.88500 118.000
35.93000 116.000
35.97500 130.000
36.02000 139.000
36.06500 107.000
36.11000 123.000
36.15500 135.000
36.20000 126.000
36.24500 117.000
36.29000 133.000
36.33500 120.000
36.38000 127.000
36.42500 132.000
36.47000 121.000
36.51500 116.000
36.56000 118.000
36.60500 89.000
36.65000 132.000
36.69500 112.000
36.74000 123.000
36.78500 109.000
36.83000 120.000
36.87500 99.000
36.92000 118.000
36.96500 108.000
37.01000 102.000
37.05500 116.000
37.10000 127.000
37.14500 103.000
37.19000 101.000
37.23500 121.000
37.28000 105.000
37.32500 119.000
37.37000 107.000
37.41500 105.000
37.46000 117.000
37.50500 106.000
37.55000 127.000
37.59500 108.000
37.64000 105.000
37.68500 114.000
37.73000 117.000
37.77500 103.000
37.82000 111.000
37.86500 96.000
37.91000 92.000
37.95500 118.000
38.00000 119.000
38.04500 121.000
38.09000 100.000
38.13500 107.000
38.18000 113.000
38.22500 108.000
38.27000 121.000
38.31500 101.000
38.36000 110.000
38.40500 118.000
38.45000 112.000
38.49500 119.000
38.54000 93.000
38.58500 132.000
38.63000 102.000
38.67500 120.000
38.72000 119.000
38.76500 133.000
38.81000 120.000
38.85500 105.000
38.90000 97.000
38.94500 103.000
38.99000 99.000
39.03500 97.000
39.08000 107.000
39.12500 96.000
39.17000 95.000
39.21500 107.000
39.26000 108.000
39.30500 102.000
39.35000 110.000
39.39500 126.000
39.44000 97.000
39.48500 92.000
39.53000 110.000
39.57500 118.000
39.62000 108.000
39.66500 116.000
39.71000 119.000
39.75500 111.000
39.80000 112.000
39.84500 96.000
39.89000 127.000
39.93500 115.000
39.98000 120.000
40.02500 133.000
40.07000 108.000
40.11500 123.000
40.16000 122.000
40.20500 115.000
40.25000 127.000
40.29500 124.000
40.34000 118.000
40.38500 129.000
40.43000 123.000
40.47500 123.000
40.52000 121.000
40.56500 121.000
40.61000 112.000
40.65500 115.000
40.70000 117.000
40.74500 125.000
40.79000 118.000
40.83500 112.000
40.88000 108.000
40.92500 127.000
40.97000 129.000
41.01500 105.000
41.06000 123.000
41.10500 123.000
41.15000 122.000
41.19500 111.000
41.24000 141.000
41.28500 116.000
41.33000 116.000
41.37500 113.000
41.42000 109.000
41.46500 107.000
41.51000 111.000
41.55500 109.000
41.60000 126.000
41.64500 99.000
41.69000 111.000
41.73500 102.000
41.78000 112.000
41.82500 102.000
41.87000 116.000
41.91500 94.000
41.96000 86.000
42.00500 119.000
42.05000 104.000
42.09500 88.000
42.14000 108.000
42.18500 109.000
42.23000 104.000
42.27500 105.000
42.32000 96.000
42.36500 104.000
42.41000 96.000
42.45500 98.000
42.50000 100.000
42.54500 116.000
42.59000 110.000
42.63500 99.000
42.68000 100.000
42.72500 100.000
42.77000 102.000
42.81500 96.000
42.86000 107.000
42.90500 117.000
42.95000 100.000
42.99500 94.000
43.04000 108.000
43.08500 101.000
43.13000 96.000
43.17500 109.000
43.22000 96.000
43.26500 106.000
43.31000 109.000
43.35500 99.000
43.40000 107.000
43.44500 104.000
43.49000 86.000
43.53500 92.000
43.58000 109.000
43.62500 91.000
43.67000 109.000
43.71500 101.000
43.76000 96.000
43.80500 115.000
43.85000 84.000
43.89500 98.000
43.94000 102.000
43.98500 122.000
44.03000 103.000
44.07500 119.000
44.12000 87.000
44.16500 115.000
44.21000 103.000
44.25500 96.000
44.30000 91.000
44.34500 96.000
44.39000 101.000
44.43500 115.000
44.48000 104.000
44.52500 93.000
44.57000 84.000
44.61500 106.000
44.66000 103.000
44.70500 99.000
44.75000 99.000
44.79500 101.000
44.84000 97.000
44.88500 82.000
44.93000 82.000
44.97500 97.000
45.02000 97.000
45.06500 97.000
45.11000 110.000
45.15500 94.000
45.20000 91.000
45.24500 82.000
45.29000 110.000
45.33500 101.000
45.38000 96.000
45.42500 99.000
45.47000 98.000
45.51500 100.000
45.56000 116.000
45.60500 107.000
45.65000 107.000
45.69500 101.000
45.74000 108.000
45.78500 120.000
45.83000 116.000
45.87500 118.000
45.92000 113.000
45.96500 98.000
46.01000 105.000
46.05500 107.000
46.10000 107.000
46.14500 103.000
46.19000 98.000
46.23500 95.000
46.28000 96.000
46.32500 97.000
46.37000 103.000
46.41500 91.000
46.46000 97.000
46.50500 102.000
46.55000 96.000
46.59500 108.000
46.64000 90.000
46.68500 97.000
46.73000 93.000
46.77500 85.000
46.82000 71.000
46.86500 97.000
46.91000 97.000
46.95500 81.000
47.00000 95.000
47.04500 89.000
47.09000 84.000
47.13500 85.000
47.18000 96.000
47.22500 83.000
47.27000 89.000
47.31500 79.000
47.36000 88.000
47.40500 89.000
47.45000 90.000
47.49500 104.000
47.54000 104.000
47.58500 94.000
47.63000 86.000
47.67500 96.000
47.72000 90.000
47.76500 94.000
47.81000 89.000
47.85500 103.000
47.90000 82.000
47.94500 100.000
47.99000 87.000
48.03500 84.000
48.08000 100.000
48.12500 95.000
48.17000 89.000
48.21500 83.000
48.26000 89.000
48.30500 90.000
48.35000 71.000
48.39500 90.000
48.44000 78.000
48.48500 84.000
48.53000 77.000
48.57500 84.000
48.62000 90.000
48.66500 94.000
48.71000 95.000
48.75500 86.000
48.80000 100.000
48.84500 84.000
48.89000 90.000
48.93500 88.000
48.98000 96.000
49.02500 91.000
49.07000 85.000
49.11500 88.000
49.16000 86.000
49.20500 87.000
49.25000 83.000
49.29500 70.000
49.34000 96.000
49.38500 92.000
49.43000 94.000
49.47500 81.000
49.52000 81.000
49.56500 84.000
49.61000 75.000
49.65500 85.000
49.70000 84.000
49.74500 78.000
49.79000 89.000
49.83500 86.000
49.88000 82.000
49.92500 91.000
49.97000 93.000
50.01500 99.000
50.06000 82.000
50.10500 79.000
50.15000 77.000
50.19500 90.000
50.24000 73.000
50.28500 86.000
50.33000 77.000
50.37500 89.000
50.42000 80.000
50.46500 77.000
50.51000 65.000
50.55500 92.000
50.60000 81.000
50.64500 78.000
50.69000 83.000
50.73500 82.000
50.78000 82.000
50.82500 90.000
50.87000 79.000
50.91500 88.000
50.96000 88.000
51.00500 97.000
51.05000 87.000
51.09500 88.000
51.14000 81.000
51.18500 82.000
51.23000 91.000
51.27500 70.000
51.32000 74.000
51.36500 91.000
51.41000 95.000
51.45500 93.000
51.50000 95.000
51.54500 85.000
51.59000 85.000
51.63500 87.000
51.68000 80.000
51.72500 83.000
51.77000 91.000
51.81500 82.000
51.86000 88.000
51.90500 77.000
51.95000 82.000
51.99500 86.000
52.04000 96.000
52.08500 100.000
52.13000 76.000
52.17500 103.000
52.22000 79.000
52.26500 81.000
52.31000 80.000
52.35500 87.000
52.40000 76.000
52.44500 86.000
52.49000 88.000
52.53500 96.000
52.58000 92.000
52.62500 97.000
52.67000 74.000
52.71500 93.000
52.76000 84.000
52.80500 92.000
52.85000 74.000
52.89500 90.000
52.94000 99.000
52.98500 87.000
53.03000 81.000
53.07500 81.000
53.12000 99.000
53.16500 76.000
53.21000 87.000
53.25500 101.000
53.30000 88.000
53.34500 96.000
53.39000 72.000
53.43500 80.000
53.48000 87.000
53.52500 79.000
53.57000 82.000
53.61500 85.000
53.66000 89.000
53.70500 69.000
53.75000 89.000
53.79500 79.000
53.84000 80.000
53.88500 88.000
53.93000 88.000
53.97500 84.000
54.02000 75.000
54.06500 102.000
54.11000 102.000
54.15500 94.000
54.20000 83.000
54.24500 72.000
54.29000 84.000
54.33500 86.000
54.38000 87.000
54.42500 97.000
54.47000 96.000
54.51500 93.000
54.56000 83.000
54.60500 93.000
54.65000 80.000
54.69500 85.000
54.74000 80.000
54.78500 81.000
54.83000 93.000
54.87500 86.000
54.92000 85.000
54.96500 82.000
55.01000 84.000
55.05500 76.000
55.10000 76.000
55.14500 69.000
55.19000 81.000
55.23500 95.000
55.28000 87.000
55.32500 79.000
55.37000 99.000
55.41500 93.000
55.46000 85.000
55.50500 77.000
55.55000 81.000
55.59500 88.000
55.64000 91.000
55.68500 70.000
55.73000 73.000
55.77500 84.000
55.82000 87.000
55.86500 83.000
55.91000 75.000
55.95500 73.000
56.00000 83.000
56.04500 91.000
56.09000 65.000
56.13500 81.000
56.18000 76.000
56.22500 79.000
56.27000 85.000
56.31500 85.000
56.36000 87.000
56.40500 85.000
56.45000 81.000
56.49500 87.000
56.54000 82.000
56.58500 100.000
56.63000 74.000
56.67500 72.000
56.72000 77.000
56.76500 73.000
56.81000 99.000
56.85500 76.000
56.90000 85.000
56.94500 64.000
56.99000 75.000
57.03500 76.000
57.08000 67.000
57.12500 82.000
57.17000 66.000
57.21500 76.000
57.26000 79.000
57.30500 79.000
57.35000 71.000
57.39500 78.000
57.44000 73.000
57.48500 72.000
57.53000 72.000
57.57500 76.000
57.62000 69.000
57.66500 81.000
57.71000 74.000
57.75500 74.000
57.80000 64.000
57.84500 85.000
57.89000 72.000
57.93500 68.000
57.98000 81.000
58.02500 84.000
58.07000 80.000
58.11500 67.000
58.16000 80.000
58.20500 66.000
58.25000 79.000
58.29500 80.000
58.34000 80.000
58.38500 73.000
58.43000 72.000
58.47500 82.000
58.52000 91.000
58.56500 79.000
58.61000 66.000
58.65500 67.000
58.70000 83.000
58.74500 62.000
58.79000 75.000
58.83500 82.000
58.88000 90.000
58.92500 69.000
58.97000 82.000
59.01500 73.000
59.06000 81.000
59.10500 75.000
59.15000 70.000
59.19500 79.000
59.24000 79.000
59.28500 78.000
59.33000 80.000
59.37500 76.000
59.42000 67.000
59.46500 82.000
59.51000 81.000
59.55500 78.000
59.60000 84.000
59.64500 84.000
59.69000 70.000
59.73500 73.000
59.78000 74.000
59.82500 79.000
59.87000 76.000
59.91500 71.000
59.96000 76.000
60.00500 83.000
60.05000 76.000
60.09500 74.000
60.14000 82.000
60.18500 70.000
60.23000 80.000
60.27500 92.000
60.32000 64.000
60.36500 76.000
60.41000 68.000
60.45500 71.000
60.50000 80.000
60.54500 77.000
60.59000 71.000
60.63500 79.000
60.68000 69.000
60.72500 73.000
60.77000 71.000
60.81500 88.000
60.86000 69.000
60.90500 65.000
60.95000 78.000
60.99500 72.000
61.04000 79.000
61.08500 78.000
61.13000 81.000
61.17500 69.000
61.22000 87.000
61.26500 67.000
61.31000 67.000
61.35500 93.000
61.40000 78.000
61.44500 67.000
61.49000 65.000
61.53500 66.000
61.58000 75.000
61.62500 67.000
61.67000 72.000
61.71500 65.000
61.76000 73.000
61.80500 78.000
61.85000 64.000
61.89500 76.000
61.94000 66.000
61.98500 63.000