File: ISoD/xrd_data/HSC089.xy
2.00000 0.000
2.04500 1.000
2.09000 1.000
2.13500 2.000
2.18000 1.000
2.22500 1.000
2.27000 1.000
2.31500 1.000
2.36000 0.000
2.40500 1.000
2.45000 0.000
2.49500 0.000
2.54000 0.000
2.58500 1.000
2.63000 1.000
2.67500 0.000
2.72000 2.000
2.76500 0.000
2.81000 1.000
2.85500 0.000
2.90000 0.000
2.94500 0.000
2.99000 1.000
3.03500 0.000
3.08000 0.000
3.12500 0.000
3.17000 5.000
3.21500 10.000
3.26000 15.000
3.30500 17.000
3.35000 22.000
3.39500 14.000
3.44000 23.000
3.48500 24.000
3.53000 18.000
3.57500 24.000
3.62000 22.000
3.66500 19.000
3.71000 17.000
3.75500 19.000
3.80000 24.000
3.84500 26.000
3.89000 30.000
3.93500 22.000
3.98000 21.000
4.02500 29.000
4.07000 24.000
4.11500 25.000
4.16000 19.000
4.20500 23.000
4.25000 23.000
4.29500 22.000
4.34000 26.000
4.38500 24.000
4.43000 29.000
4.47500 31.000
4.52000 31.000
4.56500 32.000
4.61000 32.000
4.65500 33.000
4.70000 33.000
4.74500 36.000
4.79000 28.000
4.83500 30.000
4.88000 25.000
4.92500 39.000
4.97000 40.000
5.01500 33.000
5.06000 40.000
5.10500 34.000
5.15000 33.000
5.19500 31.000
5.24000 36.000
5.28500 37.000
5.33000 31.000
5.37500 39.000
5.42000 38.000
5.46500 39.000
5.51000 33.000
5.55500 36.000
5.60000 35.000
5.64500 38.000
5.69000 37.000
5.73500 32.000
5.78000 31.000
5.82500 44.000
5.87000 43.000
5.91500 42.000
5.96000 54.000
6.00500 40.000
6.05000 35.000
6.09500 39.000
6.14000 32.000
6.18500 30.000
6.23000 31.000
6.27500 41.000
6.32000 35.000
6.36500 38.000
6.41000 40.000
6.45500 36.000
6.50000 35.000
6.54500 32.000
6.59000 44.000
6.63500 42.000
6.68000 41.000
6.72500 45.000
6.77000 40.000
6.81500 31.000
6.86000 36.000
6.90500 45.000
6.95000 39.000
6.99500 36.000
7.04000 28.000
7.08500 49.000
7.13000 33.000
7.17500 41.000
7.22000 33.000
7.26500 30.000
7.31000 44.000
7.35500 49.000
7.40000 50.000
7.44500 48.000
7.49000 47.000
7.53500 32.000
7.58000 45.000
7.62500 44.000
7.67000 51.000
7.71500 47.000
7.76000 47.000
7.80500 49.000
7.85000 49.000
7.89500 39.000
7.94000 43.000
7.98500 35.000
8.03000 45.000
8.07500 44.000
8.12000 37.000
8.16500 41.000
8.21000 45.000
8.25500 51.000
8.30000 39.000
8.34500 40.000
8.39000 34.000
8.43500 47.000
8.48000 48.000
8.52500 46.000
8.57000 41.000
8.61500 45.000
8.66000 40.000
8.70500 47.000
8.75000 41.000
8.79500 40.000
8.84000 44.000
8.88500 36.000
8.93000 35.000
8.97500 42.000
9.02000 46.000
9.06500 35.000
9.11000 43.000
9.15500 41.000
9.20000 45.000
9.24500 41.000
9.29000 47.000
9.33500 37.000
9.38000 45.000
9.42500 44.000
9.47000 40.000
9.51500 47.000
9.56000 44.000
9.60500 56.000
9.65000 44.000
9.69500 33.000
9.74000 50.000
9.78500 50.000
9.83000 53.000
9.87500 52.000
9.92000 54.000
9.96500 47.000
10.01000 44.000
10.05500 43.000
10.10000 46.000
10.14500 39.000
10.19000 43.000
10.23500 40.000
10.28000 34.000
10.32500 41.000
10.37000 44.000
10.41500 45.000
10.46000 44.000
10.50500 38.000
10.55000 50.000
10.59500 43.000
10.64000 46.000
10.68500 40.000
10.73000 47.000
10.77500 39.000
10.82000 46.000
10.86500 39.000
10.91000 50.000
10.95500 46.000
11.00000 47.000
11.04500 35.000
11.09000 41.000
11.13500 49.000
11.18000 55.000
11.22500 50.000
11.27000 44.000
11.31500 69.000
11.36000 79.000
11.40500 125.000
11.45000 247.000
11.49500 190.000
11.54000 60.000
11.58500 42.000
11.63000 54.000
11.67500 40.000
11.72000 46.000
11.76500 54.000
11.81000 46.000
11.85500 45.000
11.90000 45.000
11.94500 58.000
11.99000 52.000
12.03500 40.000
12.08000 39.000
12.12500 42.000
12.17000 45.000
12.21500 44.000
12.26000 47.000
12.30500 43.000
12.35000 44.000
12.39500 50.000
12.44000 47.000
12.48500 41.000
12.53000 49.000
12.57500 50.000
12.62000 53.000
12.66500 44.000
12.71000 40.000
12.75500 43.000
12.80000 54.000
12.84500 53.000
12.89000 48.000
12.93500 49.000
12.98000 45.000
13.02500 44.000
13.07000 47.000
13.11500 54.000
13.16000 46.000
13.20500 50.000
13.25000 50.000
13.29500 50.000
13.34000 57.000
13.38500 51.000
13.43000 57.000
13.47500 45.000
13.52000 38.000
13.56500 52.000
13.61000 44.000
13.65500 48.000
13.70000 35.000
13.74500 59.000
13.79000 54.000
13.83500 47.000
13.88000 56.000
13.92500 52.000
13.97000 46.000
14.01500 50.000
14.06000 42.000
14.10500 48.000
14.15000 47.000
14.19500 45.000
14.24000 49.000
14.28500 51.000
14.33000 45.000
14.37500 43.000
14.42000 47.000
14.46500 41.000
14.51000 47.000
14.55500 41.000
14.60000 39.000
14.64500 39.000
14.69000 36.000
14.73500 47.000
14.78000 52.000
14.82500 38.000
14.87000 47.000
14.91500 50.000
14.96000 45.000
15.00500 52.000
15.05000 52.000
15.09500 53.000
15.14000 51.000
15.18500 56.000
15.23000 78.000
15.27500 112.000
15.32000 228.000
15.36500 558.000
15.41000 345.000
15.45500 100.000
15.50000 151.000
15.54500 318.000
15.59000 93.000
15.63500 44.000
15.68000 48.000
15.72500 40.000
15.77000 57.000
15.81500 48.000
15.86000 53.000
15.90500 44.000
15.95000 48.000
15.99500 48.000
16.04000 42.000
16.08500 47.000
16.13000 44.000
16.17500 58.000
16.22000 48.000
16.26500 49.000
16.31000 46.000
16.35500 44.000
16.40000 46.000
16.44500 45.000
16.49000 37.000
16.53500 51.000
16.58000 54.000
16.62500 49.000
16.67000 46.000
16.71500 44.000
16.76000 55.000
16.80500 50.000
16.85000 48.000
16.89500 50.000
16.94000 45.000
16.98500 43.000
17.03000 48.000
17.07500 52.000
17.12000 45.000
17.16500 54.000
17.21000 44.000
17.25500 34.000
17.30000 42.000
17.34500 49.000
17.39000 40.000
17.43500 46.000
17.48000 38.000
17.52500 44.000
17.57000 57.000
17.61500 46.000
17.66000 49.000
17.70500 59.000
17.75000 50.000
17.79500 41.000
17.84000 50.000
17.88500 49.000
17.93000 43.000
17.97500 44.000
18.02000 55.000
18.06500 45.000
18.11000 44.000
18.15500 53.000
18.20000 48.000
18.24500 46.000
18.29000 54.000
18.33500 55.000
18.38000 92.000
18.42500 143.000
18.47000 64.000
18.51500 44.000
18.56000 57.000
18.60500 51.000
18.65000 55.000
18.69500 48.000
18.74000 49.000
18.78500 53.000
18.83000 52.000
18.87500 50.000
18.92000 50.000
18.96500 45.000
19.01000 53.000
19.05500 51.000
19.10000 52.000
19.14500 50.000
19.19000 50.000
19.23500 44.000
19.28000 46.000
19.32500 44.000
19.37000 36.000
19.41500 52.000
19.46000 62.000
19.50500 48.000
19.55000 54.000
19.59500 45.000
19.64000 53.000
19.68500 56.000
19.73000 45.000
19.77500 38.000
19.82000 43.000
19.86500 43.000
19.91000 53.000
19.95500 54.000
20.00000 53.000
20.04500 56.000
20.09000 55.000
20.13500 55.000
20.18000 55.000
20.22500 51.000
20.27000 57.000
20.31500 69.000
20.36000 54.000
20.40500 45.000
20.45000 50.000
20.49500 58.000
20.54000 65.000
20.58500 56.000
20.63000 67.000
20.67500 48.000
20.72000 63.000
20.76500 53.000
20.81000 56.000
20.85500 47.000
20.90000 56.000
20.94500 63.000
20.99000 58.000
21.03500 58.000
21.08000 70.000
21.12500 89.000
21.17000 183.000
21.21500 79.000
21.26000 50.000
21.30500 57.000
21.35000 58.000
21.39500 59.000
21.44000 66.000
21.48500 52.000
21.53000 58.000
21.57500 56.000
21.62000 63.000
21.66500 67.000
21.71000 64.000
21.75500 76.000
21.80000 135.000
21.84500 358.000
21.89000 551.000
21.93500 87.000
21.98000 69.000
22.02500 63.000
22.07000 59.000
22.11500 55.000
22.16000 57.000
22.20500 63.000
22.25000 57.000
22.29500 61.000
22.34000 55.000
22.38500 57.000
22.43000 66.000
22.47500 67.000
22.52000 78.000
22.56500 116.000
22.61000 181.000
22.65500 497.000
22.70000 493.000
22.74500 84.000
22.79000 69.000
22.83500 69.000
22.88000 92.000
22.92500 204.000
22.97000 525.000
23.01500 1598.000
23.06000 4883.000
23.10500 1252.000
23.15000 131.000
23.19500 79.000
23.24000 77.000
23.28500 58.000
23.33000 68.000
23.37500 63.000
23.42000 64.000
23.46500 56.000
23.51000 60.000
23.55500 66.000
23.60000 62.000
23.64500 63.000
23.69000 74.000
23.73500 53.000
23.78000 54.000
23.82500 74.000
23.87000 62.000
23.91500 59.000
23.96000 66.000
24.00500 54.000
24.05000 64.000
24.09500 60.000
24.14000 57.000
24.18500 62.000
24.23000 64.000
24.27500 54.000
24.32000 61.000
24.36500 50.000
24.41000 60.000
24.45500 57.000
24.50000 49.000
24.54500 60.000
24.59000 48.000
24.63500 55.000
24.68000 61.000
24.72500 48.000
24.77000 62.000
24.81500 82.000
24.86000 132.000
24.90500 325.000
24.95000 294.000
24.99500 79.000
25.04000 55.000
25.08500 66.000
25.13000 55.000
25.17500 55.000
25.22000 50.000
25.26500 63.000
25.31000 56.000
25.35500 62.000
25.40000 59.000
25.44500 59.000
25.49000 62.000
25.53500 63.000
25.58000 59.000
25.62500 62.000
25.67000 67.000
25.71500 151.000
25.76000 400.000
25.80500 1159.000
25.85000 1644.000
25.89500 165.000
25.94000 72.000
25.98500 59.000
26.03000 70.000
26.07500 56.000
26.12000 61.000
26.16500 67.000
26.21000 62.000
26.25500 89.000
26.30000 168.000
26.34500 142.000
26.39000 66.000
26.43500 54.000
26.48000 62.000
26.52500 75.000
26.57000 74.000
26.61500 153.000
26.66000 415.000
26.70500 1131.000
26.75000 292.000
26.79500 65.000
26.84000 68.000
26.88500 66.000
26.93000 52.000
26.97500 56.000
27.02000 62.000
27.06500 63.000
27.11000 58.000
27.15500 60.000
27.20000 42.000
27.24500 59.000
27.29000 59.000
27.33500 53.000
27.38000 51.000
27.42500 54.000
27.47000 54.000
27.51500 52.000
27.56000 98.000
27.60500 224.000
27.65000 591.000
27.69500 1924.000
27.74000 1329.000
27.78500 304.000
27.83000 80.000
27.87500 68.000
27.92000 53.000
27.96500 63.000
28.01000 69.000
28.05500 57.000
28.10000 57.000
28.14500 52.000
28.19000 50.000
28.23500 57.000
28.28000 60.000
28.32500 51.000
28.37000 46.000
28.41500 44.000
28.46000 62.000
28.50500 63.000
28.55000 104.000
28.59500 264.000
28.64000 805.000
28.68500 685.000
28.73000 114.000
28.77500 67.000
28.82000 79.000
28.86500 180.000
28.91000 562.000
28.95500 581.000
29.00000 92.000
29.04500 72.000
29.09000 63.000
29.13500 115.000
29.18000 88.000
29.22500 56.000
29.27000 50.000
29.31500 62.000
29.36000 55.000
29.40500 68.000
29.45000 56.000
29.49500 52.000
29.54000 46.000
29.58500 43.000
29.63000 51.000
29.67500 65.000
29.72000 57.000
29.76500 62.000
29.81000 45.000
29.85500 45.000
29.90000 48.000
29.94500 48.000
29.99000 55.000
30.03500 43.000
30.08000 57.000
30.12500 55.000
30.17000 42.000
30.21500 53.000
30.26000 46.000
30.30500 58.000
30.35000 46.000
30.39500 57.000
30.44000 58.000
30.48500 50.000
30.53000 52.000
30.57500 54.000
30.62000 53.000
30.66500 52.000
30.71000 62.000
30.75500 35.000
30.80000 51.000
30.84500 57.000
30.89000 55.000
30.93500 54.000
30.98000 50.000
31.02500 44.000
31.07000 54.000
31.11500 52.000
31.16000 43.000
31.20500 51.000
31.25000 70.000
31.29500 106.000
31.34000 320.000
31.38500 934.000
31.43000 319.000
31.47500 77.000
31.52000 58.000
31.56500 54.000
31.61000 59.000
31.65500 52.000
31.70000 51.000
31.74500 52.000
31.79000 41.000
31.83500 45.000
31.88000 54.000
31.92500 46.000
31.97000 45.000
32.01500 55.000
32.06000 40.000
32.10500 37.000
32.15000 53.000
32.19500 51.000
32.24000 53.000
32.28500 53.000
32.33000 43.000
32.37500 55.000
32.42000 47.000
32.46500 54.000
32.51000 49.000
32.55500 46.000
32.60000 55.000
32.64500 44.000
32.69000 52.000
32.73500 54.000
32.78000 41.000
32.82500 46.000
32.87000 52.000
32.91500 38.000
32.96000 42.000
33.00500 51.000
33.05000 43.000
33.09500 43.000
33.14000 41.000
33.18500 51.000
33.23000 78.000
33.27500 164.000
33.32000 85.000
33.36500 46.000
33.41000 59.000
33.45500 81.000
33.50000 85.000
33.54500 50.000
33.59000 42.000
33.63500 54.000
33.68000 40.000
33.72500 46.000
33.77000 47.000
33.81500 53.000
33.86000 42.000
33.90500 46.000
33.95000 44.000
33.99500 51.000
34.04000 73.000
34.08500 200.000
34.13000 552.000
34.17500 320.000
34.22000 140.000
34.26500 159.000
34.31000 44.000
34.35500 51.000
34.40000 42.000
34.44500 45.000
34.49000 42.000
34.53500 45.000
34.58000 45.000
34.62500 54.000
34.67000 50.000
34.71500 49.000
34.76000 63.000
34.80500 76.000
34.85000 108.000
34.89500 220.000
34.94000 118.000
34.98500 53.000
35.03000 45.000
35.07500 43.000
35.12000 48.000
35.16500 40.000
35.21000 38.000
35.25500 37.000
35.30000 38.000
35.34500 48.000
35.39000 34.000
35.43500 44.000
35.48000 48.000
35.52500 52.000
35.57000 48.000
35.61500 45.000
35.66000 53.000
35.70500 47.000
35.75000 57.000
35.79500 91.000
35.84000 226.000
35.88500 446.000
35.93000 111.000
35.97500 56.000
36.02000 65.000
36.06500 144.000
36.11000 236.000
36.15500 64.000
36.20000 47.000
36.24500 38.000
36.29000 46.000
36.33500 48.000
36.38000 43.000
36.42500 36.000
36.47000 31.000
36.51500 29.000
36.56000 47.000
36.60500 39.000
36.65000 36.000
36.69500 43.000
36.74000 47.000
36.78500 33.000
36.83000 42.000
36.87500 47.000
36.92000 73.000
36.96500 157.000
37.01000 544.000
37.05500 486.000
37.10000 83.000
37.14500 50.000
37.19000 51.000
37.23500 48.000
37.28000 72.000
37.32500 108.000
37.37000 142.000
37.41500 51.000
37.46000 51.000
37.50500 33.000
37.55000 34.000
37.59500 47.000
37.64000 42.000
37.68500 41.000
37.73000 68.000
37.77500 140.000
37.82000 266.000
37.86500 97.000
37.91000 147.000
37.95500 317.000
38.00000 139.000
38.04500 49.000
38.09000 40.000
38.13500 43.000
38.18000 40.000
38.22500 37.000
38.27000 47.000
38.31500 41.000
38.36000 45.000
38.40500 33.000
38.45000 27.000
38.49500 33.000
38.54000 38.000
38.58500 38.000
38.63000 35.000
38.67500 40.000
38.72000 30.000
38.76500 28.000
38.81000 35.000
38.85500 37.000
38.90000 35.000
38.94500 40.000
38.99000 28.000
39.03500 38.000
39.08000 41.000
39.12500 48.000
39.17000 41.000
39.21500 51.000
39.26000 73.000
39.30500 223.000
39.35000 404.000
39.39500 107.000
39.44000 45.000
39.48500 47.000
39.53000 50.000
39.57500 42.000
39.62000 33.000
39.66500 41.000
39.71000 36.000
39.75500 46.000
39.80000 46.000
39.84500 44.000
39.89000 40.000
39.93500 42.000
39.98000 49.000
40.02500 43.000
40.07000 41.000
40.11500 38.000
40.16000 37.000
40.20500 42.000
40.25000 53.000
40.29500 38.000
40.34000 33.000
40.38500 38.000
40.43000 44.000
40.47500 67.000
40.52000 63.000
40.56500 39.000
40.61000 61.000
40.65500 124.000
40.70000 71.000
40.74500 38.000
40.79000 34.000
40.83500 41.000
40.88000 41.000
40.92500 54.000
40.97000 37.000
41.01500 43.000
41.06000 38.000
41.10500 36.000
41.15000 38.000
41.19500 45.000
41.24000 36.000
41.28500 41.000
41.33000 34.000
41.37500 33.000
41.42000 39.000
41.46500 39.000
41.51000 45.000
41.55500 37.000
41.60000 37.000
41.64500 40.000
41.69000 39.000
41.73500 33.000
41.78000 38.000
41.82500 31.000
41.87000 40.000
41.91500 38.000
41.96000 47.000
42.00500 81.000
42.05000 196.000
42.09500 127.000
42.14000 53.000
42.18500 61.000
42.23000 56.000
42.27500 41.000
42.32000 36.000
42.36500 37.000
42.41000 47.000
42.45500 36.000
42.50000 37.000
42.54500 53.000
42.59000 57.000
42.63500 128.000
42.68000 318.000
42.72500 361.000
42.77000 412.000
42.81500 200.000
42.86000 58.000
42.90500 52.000
42.95000 49.000
42.99500 44.000
43.04000 51.000
43.08500 111.000
43.13000 110.000
43.17500 48.000
43.22000 42.000
43.26500 30.000
43.31000 43.000
43.35500 38.000
43.40000 41.000
43.44500 40.000
43.49000 32.000
43.53500 46.000
43.58000 34.000
43.62500 38.000
43.67000 40.000
43.71500 47.000
43.76000 39.000
43.80500 55.000
43.85000 38.000
43.89500 68.000
43.94000 91.000
43.98500 78.000
44.03000 47.000
44.07500 47.000
44.12000 38.000
44.16500 44.000
44.21000 40.000
44.25500 41.000
44.30000 66.000
44.34500 95.000
44.39000 64.000
44.43500 43.000
44.48000 45.000
44.52500 50.000
44.57000 40.000
44.61500 46.000
44.66000 48.000
44.70500 35.000
44.75000 43.000
44.79500 42.000
44.84000 36.000
44.88500 47.000
44.93000 42.000
44.97500 35.000
45.02000 43.000
45.06500 53.000
45.11000 109.000
45.15500 102.000
45.20000 72.000
45.24500 97.000
45.29000 74.000
45.33500 35.000
45.38000 48.000
45.42500 37.000
45.47000 52.000
45.51500 82.000
45.56000 174.000
45.60500 185.000
45.65000 75.000
45.69500 46.000
45.74000 36.000
45.78500 37.000
45.83000 44.000
45.87500 37.000
45.92000 46.000
45.96500 40.000
46.01000 42.000
46.05500 40.000
46.10000 39.000
46.14500 31.000
46.19000 35.000
46.23500 64.000
46.28000 128.000
46.32500 164.000
46.37000 73.000
46.41500 41.000
46.46000 47.000
46.50500 42.000
46.55000 30.000
46.59500 28.000
46.64000 44.000
46.68500 37.000
46.73000 47.000
46.77500 33.000
46.82000 42.000
46.86500 43.000
46.91000 38.000
46.95500 33.000
47.00000 49.000
47.04500 38.000
47.09000 86.000
47.13500 116.000
47.18000 67.000
47.22500 42.000
47.27000 43.000
47.31500 34.000
47.36000 44.000
47.40500 40.000
47.45000 40.000
47.49500 50.000
47.54000 47.000
47.58500 65.000
47.63000 122.000
47.67500 122.000
47.72000 285.000
47.76500 324.000
47.81000 155.000
47.85500 196.000
47.90000 111.000
47.94500 58.000
47.99000 55.000
48.03500 44.000
48.08000 40.000
48.12500 36.000
48.17000 50.000
48.21500 39.000
48.26000 44.000
48.30500 47.000
48.35000 38.000
48.39500 37.000
48.44000 42.000
48.48500 52.000
48.53000 45.000
48.57500 33.000
48.62000 43.000
48.66500 41.000
48.71000 35.000
48.75500 35.000
48.80000 50.000
48.84500 41.000
48.89000 47.000
48.93500 49.000
48.98000 57.000
49.02500 77.000
49.07000 65.000
49.11500 41.000
49.16000 44.000
49.20500 42.000
49.25000 35.000
49.29500 41.000
49.34000 48.000
49.38500 43.000
49.43000 52.000
49.47500 79.000
49.52000 86.000
49.56500 41.000
49.61000 63.000
49.65500 95.000
49.70000 67.000
49.74500 57.000
49.79000 53.000
49.83500 57.000
49.88000 134.000
49.92500 154.000
49.97000 218.000
50.01500 205.000
50.06000 74.000
50.10500 60.000
50.15000 54.000
50.19500 61.000
50.24000 42.000
50.28500 49.000
50.33000 34.000
50.37500 38.000
50.42000 43.000
50.46500 61.000
50.51000 61.000
50.55500 50.000
50.60000 48.000
50.64500 46.000
50.69000 51.000
50.73500 44.000
50.78000 45.000
50.82500 37.000
50.87000 49.000
50.91500 61.000
50.96000 42.000
51.00500 40.000
51.05000 48.000
51.09500 58.000
51.14000 105.000
51.18500 322.000
51.23000 535.000
51.27500 214.000
51.32000 64.000
51.36500 50.000
51.41000 47.000
51.45500 53.000
51.50000 41.000
51.54500 50.000
51.59000 47.000
51.63500 50.000
51.68000 59.000
51.72500 55.000
51.77000 45.000
51.81500 49.000
51.86000 44.000
51.90500 60.000
51.95000 77.000
51.99500 165.000
52.04000 333.000
52.08500 176.000
52.13000 57.000
52.17500 54.000
52.22000 47.000
52.26500 45.000
52.31000 46.000
52.35500 52.000
52.40000 44.000
52.44500 44.000
52.49000 35.000
52.53500 53.000
52.58000 58.000
52.62500 44.000
52.67000 49.000
52.71500 54.000
52.76000 53.000
52.80500 48.000
52.85000 52.000
52.89500 69.000
52.94000 136.000
52.98500 321.000
53.03000 197.000
53.07500 192.000
53.12000 297.000
53.16500 185.000
53.21000 100.000
53.25500 86.000
53.30000 61.000
53.34500 59.000
53.39000 44.000
53.43500 45.000
53.48000 55.000
53.52500 44.000
53.57000 43.000
53.61500 52.000
53.66000 43.000
53.70500 47.000
53.75000 43.000
53.79500 47.000
53.84000 61.000
53.88500 136.000
53.93000 295.000
53.97500 326.000
54.02000 132.000
54.06500 59.000
54.11000 48.000
54.15500 45.000
54.20000 48.000
54.24500 37.000
54.29000 54.000
54.33500 42.000
54.38000 50.000
54.42500 44.000
54.47000 41.000
54.51500 53.000
54.56000 40.000
54.60500 49.000
54.65000 63.000
54.69500 52.000
54.74000 52.000
54.78500 50.000
54.83000 46.000
54.87500 51.000
54.92000 43.000
54.96500 48.000
55.01000 66.000
55.05500 76.000
55.10000 132.000
55.14500 123.000
55.19000 81.000
55.23500 90.000
55.28000 57.000
55.32500 63.000
55.37000 86.000
55.41500 121.000
55.46000 91.000
55.50500 47.000
55.55000 55.000
55.59500 49.000
55.64000 66.000
55.68500 119.000
55.73000 281.000
55.77500 210.000
55.82000 94.000
55.86500 108.000
55.91000 92.000
55.95500 57.000
56.00000 61.000
56.04500 39.000
56.09000 47.000
56.13500 70.000
56.18000 54.000
56.22500 60.000
56.27000 52.000
56.31500 48.000
56.36000 46.000
56.40500 47.000
56.45000 44.000
56.49500 55.000
56.54000 56.000
56.58500 79.000
56.63000 201.000
56.67500 349.000
56.72000 240.000
56.76500 151.000
56.81000 116.000
56.85500 57.000
56.90000 59.000
56.94500 52.000
56.99000 54.000
57.03500 57.000
57.08000 63.000
57.12500 66.000
57.17000 81.000
57.21500 105.000
57.26000 152.000
57.30500 261.000
57.35000 209.000
57.39500 73.000
57.44000 60.000
57.48500 90.000
57.53000 149.000
57.57500 117.000
57.62000 61.000
57.66500 58.000
57.71000 80.000
57.75500 103.000
57.80000 95.000
57.84500 81.000
57.89000 68.000
57.93500 48.000
57.98000 52.000
58.02500 54.000
58.07000 61.000
58.11500 42.000
58.16000 45.000
58.20500 55.000
58.25000 47.000
58.29500 43.000
58.34000 42.000
58.38500 39.000
58.43000 49.000
58.47500 54.000
58.52000 44.000
58.56500 32.000
58.61000 37.000
58.65500 43.000
58.70000 44.000
58.74500 51.000
58.79000 52.000
58.83500 42.000
58.88000 36.000
58.92500 42.000
58.97000 43.000
59.01500 90.000
59.06000 125.000
59.10500 115.000
59.15000 80.000
59.19500 57.000
59.24000 48.000
59.28500 44.000
59.33000 38.000
59.37500 53.000
59.42000 44.000
59.46500 53.000
59.51000 52.000
59.55500 48.000
59.60000 48.000
59.64500 47.000
59.69000 50.000
59.73500 63.000
59.78000 68.000
59.82500 55.000
59.87000 61.000
59.91500 94.000
59.96000 108.000
60.00500 70.000
60.05000 52.000
60.09500 47.000
60.14000 67.000
60.18500 97.000
60.23000 60.000
60.27500 49.000
60.32000 47.000
60.36500 57.000
60.41000 106.000
60.45500 130.000
60.50000 92.000
60.54500 56.000
60.59000 61.000
60.63500 65.000
60.68000 55.000
60.72500 44.000
60.77000 42.000
60.81500 41.000
60.86000 49.000
60.90500 43.000
60.95000 38.000
60.99500 43.000
61.04000 57.000
61.08500 67.000
61.13000 58.000
61.17500 62.000
61.22000 62.000
61.26500 55.000
61.31000 46.000
61.35500 51.000
61.40000 52.000
61.44500 45.000
61.49000 55.000
61.53500 53.000
61.58000 117.000
61.62500 127.000
61.67000 85.000
61.71500 55.000
61.76000 42.000
61.80500 45.000
61.85000 59.000
61.89500 47.000
61.94000 47.000
61.98500 47.000