File: ISoD/xrd_data/HSC047.xy
2.00000 4.000
2.04500 5.000
2.09000 4.000
2.13500 6.000
2.18000 4.000
2.22500 4.000
2.27000 5.000
2.31500 2.000
2.36000 4.000
2.40500 4.000
2.45000 3.000
2.49500 3.000
2.54000 4.000
2.58500 3.000
2.63000 4.000
2.67500 4.000
2.72000 4.000
2.76500 3.000
2.81000 4.000
2.85500 3.000
2.90000 3.000
2.94500 5.000
2.99000 2.000
3.03500 2.000
3.08000 4.000
3.12500 16.000
3.17000 26.000
3.21500 49.000
3.26000 79.000
3.30500 162.000
3.35000 257.000
3.39500 289.000
3.44000 295.000
3.48500 276.000
3.53000 287.000
3.57500 293.000
3.62000 282.000
3.66500 268.000
3.71000 292.000
3.75500 276.000
3.80000 306.000
3.84500 265.000
3.89000 286.000
3.93500 285.000
3.98000 298.000
4.02500 278.000
4.07000 304.000
4.11500 309.000
4.16000 282.000
4.20500 285.000
4.25000 305.000
4.29500 271.000
4.34000 302.000
4.38500 303.000
4.43000 291.000
4.47500 309.000
4.52000 299.000
4.56500 304.000
4.61000 277.000
4.65500 285.000
4.70000 287.000
4.74500 294.000
4.79000 306.000
4.83500 319.000
4.88000 300.000
4.92500 317.000
4.97000 296.000
5.01500 310.000
5.06000 302.000
5.10500 291.000
5.15000 328.000
5.19500 314.000
5.24000 329.000
5.28500 332.000
5.33000 291.000
5.37500 323.000
5.42000 297.000
5.46500 325.000
5.51000 318.000
5.55500 296.000
5.60000 328.000
5.64500 324.000
5.69000 311.000
5.73500 306.000
5.78000 336.000
5.82500 345.000
5.87000 346.000
5.91500 295.000
5.96000 285.000
6.00500 295.000
6.05000 331.000
6.09500 333.000
6.14000 304.000
6.18500 332.000
6.23000 322.000
6.27500 327.000
6.32000 334.000
6.36500 314.000
6.41000 344.000
6.45500 325.000
6.50000 340.000
6.54500 327.000
6.59000 353.000
6.63500 316.000
6.68000 331.000
6.72500 336.000
6.77000 311.000
6.81500 371.000
6.86000 354.000
6.90500 354.000
6.95000 321.000
6.99500 343.000
7.04000 346.000
7.08500 345.000
7.13000 330.000
7.17500 337.000
7.22000 352.000
7.26500 350.000
7.31000 340.000
7.35500 348.000
7.40000 339.000
7.44500 346.000
7.49000 352.000
7.53500 360.000
7.58000 340.000
7.62500 303.000
7.67000 360.000
7.71500 361.000
7.76000 337.000
7.80500 335.000
7.85000 377.000
7.89500 336.000
7.94000 359.000
7.98500 375.000
8.03000 352.000
8.07500 366.000
8.12000 363.000
8.16500 363.000
8.21000 364.000
8.25500 365.000
8.30000 358.000
8.34500 369.000
8.39000 368.000
8.43500 370.000
8.48000 359.000
8.52500 334.000
8.57000 341.000
8.61500 373.000
8.66000 374.000
8.70500 367.000
8.75000 351.000
8.79500 381.000
8.84000 378.000
8.88500 365.000
8.93000 345.000
8.97500 377.000
9.02000 375.000
9.06500 380.000
9.11000 362.000
9.15500 367.000
9.20000 374.000
9.24500 359.000
9.29000 343.000
9.33500 370.000
9.38000 347.000
9.42500 361.000
9.47000 392.000
9.51500 365.000
9.56000 356.000
9.60500 364.000
9.65000 383.000
9.69500 398.000
9.74000 375.000
9.78500 374.000
9.83000 374.000
9.87500 387.000
9.92000 388.000
9.96500 402.000
10.01000 387.000
10.05500 376.000
10.10000 379.000
10.14500 386.000
10.19000 389.000
10.23500 379.000
10.28000 378.000
10.32500 385.000
10.37000 389.000
10.41500 382.000
10.46000 406.000
10.50500 394.000
10.55000 369.000
10.59500 393.000
10.64000 383.000
10.68500 388.000
10.73000 383.000
10.77500 381.000
10.82000 408.000
10.86500 373.000
10.91000 373.000
10.95500 413.000
11.00000 410.000
11.04500 390.000
11.09000 416.000
11.13500 438.000
11.18000 402.000
11.22500 406.000
11.27000 396.000
11.31500 413.000
11.36000 420.000
11.40500 407.000
11.45000 425.000
11.49500 446.000
11.54000 449.000
11.58500 418.000
11.63000 398.000
11.67500 425.000
11.72000 419.000
11.76500 411.000
11.81000 431.000
11.85500 410.000
11.90000 463.000
11.94500 451.000
11.99000 472.000
12.03500 556.000
12.08000 569.000
12.12500 675.000
12.17000 747.000
12.21500 980.000
12.26000 1518.000
12.30500 1622.000
12.35000 704.000
12.39500 674.000
12.44000 771.000
12.48500 946.000
12.53000 1053.000
12.57500 1011.000
12.62000 763.000
12.66500 615.000
12.71000 520.000
12.75500 490.000
12.80000 484.000
12.84500 470.000
12.89000 480.000
12.93500 465.000
12.98000 496.000
13.02500 491.000
13.07000 495.000
13.11500 446.000
13.16000 524.000
13.20500 485.000
13.25000 496.000
13.29500 508.000
13.34000 567.000
13.38500 672.000
13.43000 731.000
13.47500 773.000
13.52000 620.000
13.56500 673.000
13.61000 796.000
13.65500 977.000
13.70000 1214.000
13.74500 1367.000
13.79000 1220.000
13.83500 900.000
13.88000 637.000
13.92500 543.000
13.97000 492.000
14.01500 491.000
14.06000 472.000
14.10500 487.000
14.15000 518.000
14.19500 498.000
14.24000 477.000
14.28500 463.000
14.33000 462.000
14.37500 465.000
14.42000 483.000
14.46500 443.000
14.51000 485.000
14.55500 478.000
14.60000 482.000
14.64500 484.000
14.69000 429.000
14.73500 431.000
14.78000 475.000
14.82500 433.000
14.87000 452.000
14.91500 471.000
14.96000 439.000
15.00500 485.000
15.05000 475.000
15.09500 496.000
15.14000 467.000
15.18500 480.000
15.23000 446.000
15.27500 479.000
15.32000 489.000
15.36500 467.000
15.41000 470.000
15.45500 475.000
15.50000 486.000
15.54500 503.000
15.59000 489.000
15.63500 496.000
15.68000 479.000
15.72500 518.000
15.77000 501.000
15.81500 472.000
15.86000 475.000
15.90500 478.000
15.95000 483.000
15.99500 479.000
16.04000 480.000
16.08500 508.000
16.13000 497.000
16.17500 491.000
16.22000 506.000
16.26500 496.000
16.31000 507.000
16.35500 522.000
16.40000 541.000
16.44500 592.000
16.49000 570.000
16.53500 522.000
16.58000 536.000
16.62500 565.000
16.67000 615.000
16.71500 639.000
16.76000 665.000
16.80500 583.000
16.85000 575.000
16.89500 517.000
16.94000 561.000
16.98500 525.000
17.03000 519.000
17.07500 497.000
17.12000 532.000
17.16500 542.000
17.21000 540.000
17.25500 511.000
17.30000 520.000
17.34500 532.000
17.39000 514.000
17.43500 527.000
17.48000 523.000
17.52500 560.000
17.57000 546.000
17.61500 542.000
17.66000 546.000
17.70500 550.000
17.75000 532.000
17.79500 538.000
17.84000 531.000
17.88500 564.000
17.93000 574.000
17.97500 566.000
18.02000 589.000
18.06500 607.000
18.11000 632.000
18.15500 567.000
18.20000 556.000
18.24500 573.000
18.29000 609.000
18.33500 596.000
18.38000 586.000
18.42500 602.000
18.47000 632.000
18.51500 625.000
18.56000 576.000
18.60500 531.000
18.65000 555.000
18.69500 556.000
18.74000 565.000
18.78500 542.000
18.83000 565.000
18.87500 538.000
18.92000 615.000
18.96500 612.000
19.01000 568.000
19.05500 592.000
19.10000 607.000
19.14500 654.000
19.19000 601.000
19.23500 636.000
19.28000 632.000
19.32500 629.000
19.37000 652.000
19.41500 683.000
19.46000 770.000
19.50500 726.000
19.55000 674.000
19.59500 721.000
19.64000 798.000
19.68500 806.000
19.73000 744.000
19.77500 670.000
19.82000 661.000
19.86500 622.000
19.91000 598.000
19.95500 591.000
20.00000 612.000
20.04500 609.000
20.09000 587.000
20.13500 611.000
20.18000 607.000
20.22500 605.000
20.27000 576.000
20.31500 610.000
20.36000 610.000
20.40500 592.000
20.45000 604.000
20.49500 633.000
20.54000 571.000
20.58500 612.000
20.63000 656.000
20.67500 572.000
20.72000 600.000
20.76500 628.000
20.81000 596.000
20.85500 613.000
20.90000 641.000
20.94500 596.000
20.99000 632.000
21.03500 625.000
21.08000 600.000
21.12500 611.000
21.17000 628.000
21.21500 636.000
21.26000 628.000
21.30500 618.000
21.35000 624.000
21.39500 638.000
21.44000 652.000
21.48500 672.000
21.53000 659.000
21.57500 727.000
21.62000 698.000
21.66500 789.000
21.71000 786.000
21.75500 816.000
21.80000 828.000
21.84500 947.000
21.89000 1049.000
21.93500 1065.000
21.98000 992.000
22.02500 930.000
22.07000 891.000
22.11500 904.000
22.16000 824.000
22.20500 803.000
22.25000 719.000
22.29500 677.000
22.34000 717.000
22.38500 687.000
22.43000 629.000
22.47500 681.000
22.52000 683.000
22.56500 624.000
22.61000 650.000
22.65500 647.000
22.70000 640.000
22.74500 670.000
22.79000 654.000
22.83500 705.000
22.88000 685.000
22.92500 686.000
22.97000 682.000
23.01500 697.000
23.06000 724.000
23.10500 663.000
23.15000 659.000
23.19500 658.000
23.24000 671.000
23.28500 680.000
23.33000 679.000
23.37500 690.000
23.42000 670.000
23.46500 647.000
23.51000 651.000
23.55500 658.000
23.60000 686.000
23.64500 699.000
23.69000 683.000
23.73500 702.000
23.78000 689.000
23.82500 707.000
23.87000 729.000
23.91500 750.000
23.96000 745.000
24.00500 705.000
24.05000 693.000
24.09500 713.000
24.14000 688.000
24.18500 691.000
24.23000 743.000
24.27500 712.000
24.32000 761.000
24.36500 750.000
24.41000 710.000
24.45500 717.000
24.50000 759.000
24.54500 714.000
24.59000 791.000
24.63500 803.000
24.68000 892.000
24.72500 902.000
24.77000 897.000
24.81500 936.000
24.86000 909.000
24.90500 953.000
24.95000 1034.000
24.99500 1083.000
25.04000 1265.000
25.08500 1510.000
25.13000 1736.000
25.17500 1908.000
25.22000 1968.000
25.26500 1744.000
25.31000 1520.000
25.35500 1274.000
25.40000 1191.000
25.44500 1057.000
25.49000 977.000
25.53500 923.000
25.58000 905.000
25.62500 920.000
25.67000 1027.000
25.71500 1176.000
25.76000 1314.000
25.80500 1103.000
25.85000 921.000
25.89500 887.000
25.94000 906.000
25.98500 935.000
26.03000 858.000
26.07500 878.000
26.12000 902.000
26.16500 989.000
26.21000 1015.000
26.25500 1280.000
26.30000 1250.000
26.34500 1030.000
26.39000 972.000
26.43500 935.000
26.48000 946.000
26.52500 946.000
26.57000 943.000
26.61500 942.000
26.66000 928.000
26.70500 978.000
26.75000 1016.000
26.79500 1002.000
26.84000 1066.000
26.88500 1098.000
26.93000 1171.000
26.97500 1239.000
27.02000 1372.000
27.06500 1462.000
27.11000 1590.000
27.15500 1564.000
27.20000 1500.000
27.24500 1318.000
27.29000 1275.000
27.33500 1152.000
27.38000 1133.000
27.42500 1092.000
27.47000 1014.000
27.51500 1068.000
27.56000 1037.000
27.60500 1096.000
27.65000 1187.000
27.69500 1349.000
27.74000 1491.000
27.78500 1807.000
27.83000 1550.000
27.87500 1102.000
27.92000 911.000
27.96500 871.000
28.01000 823.000
28.05500 825.000
28.10000 791.000
28.14500 749.000
28.19000 781.000
28.23500 762.000
28.28000 755.000
28.32500 765.000
28.37000 745.000
28.41500 765.000
28.46000 737.000
28.50500 768.000
28.55000 672.000
28.59500 707.000
28.64000 718.000
28.68500 709.000
28.73000 767.000
28.77500 764.000
28.82000 753.000
28.86500 665.000
28.91000 689.000
28.95500 705.000
29.00000 634.000
29.04500 647.000
29.09000 634.000
29.13500 642.000
29.18000 633.000
29.22500 648.000
29.27000 686.000
29.31500 689.000
29.36000 728.000
29.40500 731.000
29.45000 632.000
29.49500 607.000
29.54000 613.000
29.58500 629.000
29.63000 560.000
29.67500 601.000
29.72000 605.000
29.76500 627.000
29.81000 648.000
29.85500 606.000
29.90000 615.000
29.94500 636.000
29.99000 621.000
30.03500 637.000
30.08000 671.000
30.12500 737.000
30.17000 778.000
30.21500 675.000
30.26000 667.000
30.30500 703.000
30.35000 735.000
30.39500 719.000
30.44000 684.000
30.48500 657.000
30.53000 625.000
30.57500 582.000
30.62000 589.000
30.66500 624.000
30.71000 633.000
30.75500 654.000
30.80000 714.000
30.84500 666.000
30.89000 609.000
30.93500 596.000
30.98000 600.000
31.02500 583.000
31.07000 540.000
31.11500 555.000
31.16000 578.000
31.20500 591.000
31.25000 603.000
31.29500 565.000
31.34000 538.000
31.38500 535.000
31.43000 531.000
31.47500 489.000
31.52000 533.000
31.56500 553.000
31.61000 533.000
31.65500 549.000
31.70000 571.000
31.74500 557.000
31.79000 560.000
31.83500 504.000
31.88000 498.000
31.92500 482.000
31.97000 474.000
32.01500 487.000
32.06000 485.000
32.10500 498.000
32.15000 517.000
32.19500 456.000
32.24000 492.000
32.28500 495.000
32.33000 517.000
32.37500 483.000
32.42000 483.000
32.46500 480.000
32.51000 506.000
32.55500 508.000
32.60000 462.000
32.64500 472.000
32.69000 438.000
32.73500 493.000
32.78000 464.000
32.82500 471.000
32.87000 423.000
32.91500 428.000
32.96000 445.000
33.00500 438.000
33.05000 434.000
33.09500 451.000
33.14000 456.000
33.18500 448.000
33.23000 457.000
33.27500 446.000
33.32000 461.000
33.36500 430.000
33.41000 435.000
33.45500 416.000
33.50000 422.000
33.54500 444.000
33.59000 411.000
33.63500 420.000
33.68000 456.000
33.72500 472.000
33.77000 410.000
33.81500 391.000
33.86000 425.000
33.90500 407.000
33.95000 397.000
33.99500 448.000
34.04000 443.000
34.08500 405.000
34.13000 393.000
34.17500 386.000
34.22000 396.000
34.26500 398.000
34.31000 374.000
34.35500 398.000
34.40000 414.000
34.44500 380.000
34.49000 392.000
34.53500 371.000
34.58000 413.000
34.62500 456.000
34.67000 425.000
34.71500 385.000
34.76000 405.000
34.80500 383.000
34.85000 419.000
34.89500 410.000
34.94000 428.000
34.98500 418.000
35.03000 389.000
35.07500 419.000
35.12000 412.000
35.16500 410.000
35.21000 427.000
35.25500 373.000
35.30000 384.000
35.34500 403.000
35.39000 391.000
35.43500 357.000
35.48000 362.000
35.52500 371.000
35.57000 378.000
35.61500 388.000
35.66000 353.000
35.70500 382.000
35.75000 342.000
35.79500 365.000
35.84000 381.000
35.88500 354.000
35.93000 335.000
35.97500 350.000
36.02000 393.000
36.06500 376.000
36.11000 353.000
36.15500 341.000
36.20000 354.000
36.24500 331.000
36.29000 336.000
36.33500 326.000
36.38000 318.000
36.42500 309.000
36.47000 337.000
36.51500 340.000
36.56000 338.000
36.60500 329.000
36.65000 329.000
36.69500 311.000
36.74000 299.000
36.78500 332.000
36.83000 307.000
36.87500 323.000
36.92000 315.000
36.96500 301.000
37.01000 327.000
37.05500 327.000
37.10000 311.000
37.14500 320.000
37.19000 316.000
37.23500 315.000
37.28000 294.000
37.32500 318.000
37.37000 302.000
37.41500 307.000
37.46000 317.000
37.50500 319.000
37.55000 296.000
37.59500 283.000
37.64000 300.000
37.68500 292.000
37.73000 329.000
37.77500 282.000
37.82000 294.000
37.86500 276.000
37.91000 294.000
37.95500 314.000
38.00000 323.000
38.04500 334.000
38.09000 320.000
38.13500 317.000
38.18000 319.000
38.22500 317.000
38.27000 310.000
38.31500 370.000
38.36000 313.000
38.40500 307.000
38.45000 293.000
38.49500 323.000
38.54000 318.000
38.58500 297.000
38.63000 289.000
38.67500 317.000
38.72000 312.000
38.76500 308.000
38.81000 300.000
38.85500 303.000
38.90000 308.000
38.94500 303.000
38.99000 311.000
39.03500 314.000
39.08000 311.000
39.12500 325.000
39.17000 312.000
39.21500 286.000
39.26000 285.000
39.30500 298.000
39.35000 328.000
39.39500 326.000
39.44000 346.000
39.48500 337.000
39.53000 298.000
39.57500 302.000
39.62000 304.000
39.66500 296.000
39.71000 320.000
39.75500 293.000
39.80000 283.000
39.84500 319.000
39.89000 330.000
39.93500 313.000
39.98000 333.000
40.02500 300.000
40.07000 301.000
40.11500 271.000
40.16000 301.000
40.20500 314.000
40.25000 294.000
40.29500 283.000
40.34000 323.000
40.38500 289.000
40.43000 310.000
40.47500 324.000
40.52000 309.000
40.56500 283.000
40.61000 323.000
40.65500 303.000
40.70000 269.000
40.74500 271.000
40.79000 303.000
40.83500 291.000
40.88000 297.000
40.92500 301.000
40.97000 291.000
41.01500 307.000
41.06000 303.000
41.10500 319.000
41.15000 279.000
41.19500 343.000
41.24000 282.000
41.28500 296.000
41.33000 307.000
41.37500 289.000
41.42000 272.000
41.46500 274.000
41.51000 308.000
41.55500 301.000
41.60000 313.000
41.64500 272.000
41.69000 311.000
41.73500 295.000
41.78000 307.000
41.82500 339.000
41.87000 331.000
41.91500 332.000
41.96000 351.000
42.00500 342.000
42.05000 345.000
42.09500 340.000
42.14000 334.000
42.18500 357.000
42.23000 317.000
42.27500 301.000
42.32000 300.000
42.36500 319.000
42.41000 275.000
42.45500 291.000
42.50000 283.000
42.54500 276.000
42.59000 285.000
42.63500 307.000
42.68000 298.000
42.72500 295.000
42.77000 291.000
42.81500 272.000
42.86000 283.000
42.90500 303.000
42.95000 302.000
42.99500 281.000
43.04000 266.000
43.08500 309.000
43.13000 280.000
43.17500 299.000
43.22000 273.000
43.26500 290.000
43.31000 307.000
43.35500 297.000
43.40000 311.000
43.44500 245.000
43.49000 279.000
43.53500 289.000
43.58000 282.000
43.62500 278.000
43.67000 322.000
43.71500 267.000
43.76000 300.000
43.80500 281.000
43.85000 253.000
43.89500 281.000
43.94000 282.000
43.98500 297.000
44.03000 289.000
44.07500 291.000
44.12000 306.000
44.16500 294.000
44.21000 317.000
44.25500 300.000
44.30000 297.000
44.34500 281.000
44.39000 283.000
44.43500 276.000
44.48000 265.000
44.52500 279.000
44.57000 286.000
44.61500 284.000
44.66000 288.000
44.70500 265.000
44.75000 285.000
44.79500 281.000
44.84000 293.000
44.88500 309.000
44.93000 288.000
44.97500 283.000
45.02000 294.000
45.06500 293.000
45.11000 306.000
45.15500 293.000
45.20000 281.000
45.24500 272.000
45.29000 282.000
45.33500 291.000
45.38000 277.000
45.42500 289.000
45.47000 284.000
45.51500 277.000
45.56000 310.000
45.60500 263.000
45.65000 284.000
45.69500 281.000
45.74000 272.000
45.78500 274.000
45.83000 280.000
45.87500 267.000
45.92000 276.000
45.96500 280.000
46.01000 255.000
46.05500 278.000
46.10000 268.000
46.14500 262.000
46.19000 278.000
46.23500 296.000
46.28000 287.000
46.32500 281.000
46.37000 284.000
46.41500 267.000
46.46000 281.000
46.50500 296.000
46.55000 269.000
46.59500 268.000
46.64000 293.000
46.68500 259.000
46.73000 265.000
46.77500 285.000
46.82000 280.000
46.86500 278.000
46.91000 297.000
46.95500 307.000
47.00000 284.000
47.04500 289.000
47.09000 295.000
47.13500 276.000
47.18000 253.000
47.22500 266.000
47.27000 297.000
47.31500 289.000
47.36000 301.000
47.40500 290.000
47.45000 299.000
47.49500 299.000
47.54000 311.000
47.58500 296.000
47.63000 234.000
47.67500 291.000
47.72000 298.000
47.76500 254.000
47.81000 266.000
47.85500 258.000
47.90000 267.000
47.94500 254.000
47.99000 264.000
48.03500 247.000
48.08000 257.000
48.12500 263.000
48.17000 236.000
48.21500 243.000
48.26000 293.000
48.30500 268.000
48.35000 310.000
48.39500 306.000
48.44000 308.000
48.48500 297.000
48.53000 264.000
48.57500 291.000
48.62000 271.000
48.66500 257.000
48.71000 270.000
48.75500 248.000
48.80000 276.000
48.84500 270.000
48.89000 231.000
48.93500 253.000
48.98000 272.000
49.02500 277.000
49.07000 245.000
49.11500 271.000
49.16000 235.000
49.20500 261.000
49.25000 263.000
49.29500 253.000
49.34000 253.000
49.38500 248.000
49.43000 252.000
49.47500 275.000
49.52000 261.000
49.56500 247.000
49.61000 257.000
49.65500 282.000
49.70000 271.000
49.74500 240.000
49.79000 240.000
49.83500 236.000
49.88000 245.000
49.92500 271.000
49.97000 218.000
50.01500 227.000
50.06000 269.000
50.10500 256.000
50.15000 242.000
50.19500 261.000
50.24000 274.000
50.28500 258.000
50.33000 233.000
50.37500 262.000
50.42000 236.000
50.46500 247.000
50.51000 261.000
50.55500 254.000
50.60000 247.000
50.64500 251.000
50.69000 241.000
50.73500 243.000
50.78000 235.000
50.82500 251.000
50.87000 247.000
50.91500 229.000
50.96000 247.000
51.00500 257.000
51.05000 224.000
51.09500 250.000
51.14000 229.000
51.18500 247.000
51.23000 225.000
51.27500 246.000
51.32000 244.000
51.36500 256.000
51.41000 247.000
51.45500 276.000
51.50000 295.000
51.54500 255.000
51.59000 275.000
51.63500 262.000
51.68000 281.000
51.72500 302.000
51.77000 269.000
51.81500 274.000
51.86000 273.000
51.90500 294.000
51.95000 269.000
51.99500 278.000
52.04000 283.000
52.08500 278.000
52.13000 265.000
52.17500 268.000
52.22000 244.000
52.26500 254.000
52.31000 240.000
52.35500 238.000
52.40000 241.000
52.44500 233.000
52.49000 219.000
52.53500 239.000
52.58000 229.000
52.62500 224.000
52.67000 243.000
52.71500 223.000
52.76000 237.000
52.80500 261.000
52.85000 236.000
52.89500 234.000
52.94000 237.000
52.98500 248.000
53.03000 231.000
53.07500 249.000
53.12000 295.000
53.16500 239.000
53.21000 275.000
53.25500 256.000
53.30000 234.000
53.34500 269.000
53.39000 268.000
53.43500 283.000
53.48000 273.000
53.52500 268.000
53.57000 257.000
53.61500 258.000
53.66000 252.000
53.70500 262.000
53.75000 259.000
53.79500 243.000
53.84000 261.000
53.88500 247.000
53.93000 256.000
53.97500 237.000
54.02000 267.000
54.06500 251.000
54.11000 252.000
54.15500 244.000
54.20000 236.000
54.24500 221.000
54.29000 215.000
54.33500 251.000
54.38000 231.000
54.42500 247.000
54.47000 216.000
54.51500 243.000
54.56000 239.000
54.60500 234.000
54.65000 227.000
54.69500 211.000
54.74000 252.000
54.78500 244.000
54.83000 232.000
54.87500 245.000
54.92000 251.000
54.96500 224.000
55.01000 253.000
55.05500 252.000
55.10000 258.000
55.14500 243.000
55.19000 260.000
55.23500 232.000
55.28000 219.000
55.32500 254.000
55.37000 232.000
55.41500 240.000
55.46000 245.000
55.50500 220.000
55.55000 257.000
55.59500 225.000
55.64000 242.000
55.68500 221.000
55.73000 228.000
55.77500 229.000
55.82000 238.000
55.86500 215.000
55.91000 232.000
55.95500 223.000
56.00000 239.000
56.04500 222.000
56.09000 240.000
56.13500 215.000
56.18000 243.000
56.22500 247.000
56.27000 217.000
56.31500 230.000
56.36000 232.000
56.40500 230.000
56.45000 230.000
56.49500 253.000
56.54000 233.000
56.58500 240.000
56.63000 240.000
56.67500 241.000
56.72000 235.000
56.76500 272.000
56.81000 241.000
56.85500 235.000
56.90000 233.000
56.94500 259.000
56.99000 238.000
57.03500 222.000
57.08000 238.000
57.12500 251.000
57.17000 244.000
57.21500 260.000
57.26000 240.000
57.30500 240.000
57.35000 265.000
57.39500 261.000
57.44000 252.000
57.48500 257.000
57.53000 228.000
57.57500 215.000
57.62000 205.000
57.66500 240.000
57.71000 245.000
57.75500 189.000
57.80000 232.000
57.84500 216.000
57.89000 218.000
57.93500 249.000
57.98000 228.000
58.02500 229.000
58.07000 229.000
58.11500 206.000
58.16000 225.000
58.20500 209.000
58.25000 189.000
58.29500 224.000
58.34000 229.000
58.38500 224.000
58.43000 214.000
58.47500 238.000
58.52000 203.000
58.56500 220.000
58.61000 218.000
58.65500 224.000
58.70000 205.000
58.74500 210.000
58.79000 215.000
58.83500 211.000
58.88000 222.000
58.92500 196.000
58.97000 213.000
59.01500 205.000
59.06000 228.000
59.10500 230.000
59.15000 213.000
59.19500 214.000
59.24000 216.000
59.28500 201.000
59.33000 208.000
59.37500 178.000
59.42000 227.000
59.46500 207.000
59.51000 213.000
59.55500 196.000
59.60000 224.000
59.64500 231.000
59.69000 203.000
59.73500 206.000
59.78000 207.000
59.82500 214.000
59.87000 209.000
59.91500 201.000
59.96000 224.000
60.00500 236.000
60.05000 221.000
60.09500 201.000
60.14000 220.000
60.18500 200.000
60.23000 204.000
60.27500 219.000
60.32000 222.000
60.36500 187.000
60.41000 238.000
60.45500 233.000
60.50000 208.000
60.54500 211.000
60.59000 204.000
60.63500 205.000
60.68000 240.000
60.72500 193.000
60.77000 199.000
60.81500 221.000
60.86000 198.000
60.90500 204.000
60.95000 208.000
60.99500 209.000
61.04000 218.000
61.08500 210.000
61.13000 191.000
61.17500 208.000
61.22000 200.000
61.26500 215.000
61.31000 196.000
61.35500 180.000
61.40000 205.000
61.44500 213.000
61.49000 209.000
61.53500 196.000
61.58000 219.000
61.62500 211.000
61.67000 209.000
61.71500 198.000
61.76000 187.000
61.80500 199.000
61.85000 226.000
61.89500 181.000
61.94000 201.000
61.98500 186.000