File: ISoD/xrd_data/HSC087.xy
2.00000 1.000
2.04500 2.000
2.09000 1.000
2.13500 1.000
2.18000 3.000
2.22500 1.000
2.27000 1.000
2.31500 5.000
2.36000 3.000
2.40500 2.000
2.45000 2.000
2.49500 1.000
2.54000 2.000
2.58500 2.000
2.63000 5.000
2.67500 3.000
2.72000 6.000
2.76500 3.000
2.81000 2.000
2.85500 3.000
2.90000 5.000
2.94500 1.000
2.99000 1.000
3.03500 3.000
3.08000 3.000
3.12500 5.000
3.17000 9.000
3.21500 27.000
3.26000 74.000
3.30500 150.000
3.35000 158.000
3.39500 132.000
3.44000 155.000
3.48500 151.000
3.53000 147.000
3.57500 149.000
3.62000 128.000
3.66500 137.000
3.71000 131.000
3.75500 156.000
3.80000 140.000
3.84500 151.000
3.89000 154.000
3.93500 152.000
3.98000 127.000
4.02500 148.000
4.07000 137.000
4.11500 156.000
4.16000 149.000
4.20500 147.000
4.25000 139.000
4.29500 154.000
4.34000 161.000
4.38500 145.000
4.43000 138.000
4.47500 158.000
4.52000 148.000
4.56500 146.000
4.61000 147.000
4.65500 153.000
4.70000 160.000
4.74500 167.000
4.79000 175.000
4.83500 158.000
4.88000 164.000
4.92500 169.000
4.97000 154.000
5.01500 172.000
5.06000 176.000
5.10500 157.000
5.15000 185.000
5.19500 159.000
5.24000 185.000
5.28500 172.000
5.33000 188.000
5.37500 184.000
5.42000 163.000
5.46500 170.000
5.51000 167.000
5.55500 190.000
5.60000 171.000
5.64500 194.000
5.69000 187.000
5.73500 186.000
5.78000 199.000
5.82500 196.000
5.87000 216.000
5.91500 217.000
5.96000 238.000
6.00500 281.000
6.05000 304.000
6.09500 332.000
6.14000 404.000
6.18500 513.000
6.23000 862.000
6.27500 516.000
6.32000 498.000
6.36500 515.000
6.41000 496.000
6.45500 466.000
6.50000 407.000
6.54500 297.000
6.59000 263.000
6.63500 216.000
6.68000 194.000
6.72500 194.000
6.77000 223.000
6.81500 185.000
6.86000 184.000
6.90500 195.000
6.95000 196.000
6.99500 185.000
7.04000 191.000
7.08500 183.000
7.13000 201.000
7.17500 212.000
7.22000 182.000
7.26500 170.000
7.31000 221.000
7.35500 199.000
7.40000 196.000
7.44500 224.000
7.49000 192.000
7.53500 183.000
7.58000 214.000
7.62500 201.000
7.67000 203.000
7.71500 205.000
7.76000 201.000
7.80500 204.000
7.85000 227.000
7.89500 197.000
7.94000 203.000
7.98500 219.000
8.03000 203.000
8.07500 204.000
8.12000 212.000
8.16500 230.000
8.21000 201.000
8.25500 204.000
8.30000 224.000
8.34500 247.000
8.39000 250.000
8.43500 265.000
8.48000 250.000
8.52500 240.000
8.57000 238.000
8.61500 241.000
8.66000 271.000
8.70500 240.000
8.75000 211.000
8.79500 228.000
8.84000 260.000
8.88500 248.000
8.93000 244.000
8.97500 252.000
9.02000 226.000
9.06500 232.000
9.11000 224.000
9.15500 239.000
9.20000 233.000
9.24500 225.000
9.29000 219.000
9.33500 229.000
9.38000 263.000
9.42500 237.000
9.47000 252.000
9.51500 267.000
9.56000 296.000
9.60500 295.000
9.65000 299.000
9.69500 370.000
9.74000 404.000
9.78500 456.000
9.83000 400.000
9.87500 454.000
9.92000 465.000
9.96500 438.000
10.01000 444.000
10.05500 462.000
10.10000 534.000
10.14500 506.000
10.19000 534.000
10.23500 586.000
10.28000 625.000
10.32500 690.000
10.37000 863.000
10.41500 1122.000
10.46000 1457.000
10.50500 538.000
10.55000 434.000
10.59500 384.000
10.64000 343.000
10.68500 316.000
10.73000 316.000
10.77500 247.000
10.82000 243.000
10.86500 234.000
10.91000 243.000
10.95500 230.000
11.00000 216.000
11.04500 229.000
11.09000 234.000
11.13500 222.000
11.18000 242.000
11.22500 231.000
11.27000 229.000
11.31500 220.000
11.36000 248.000
11.40500 239.000
11.45000 243.000
11.49500 222.000
11.54000 217.000
11.58500 201.000
11.63000 214.000
11.67500 209.000
11.72000 201.000
11.76500 202.000
11.81000 206.000
11.85500 232.000
11.90000 235.000
11.94500 233.000
11.99000 244.000
12.03500 236.000
12.08000 259.000
12.12500 244.000
12.17000 232.000
12.21500 246.000
12.26000 227.000
12.30500 242.000
12.35000 256.000
12.39500 275.000
12.44000 318.000
12.48500 366.000
12.53000 440.000
12.57500 586.000
12.62000 324.000
12.66500 272.000
12.71000 279.000
12.75500 283.000
12.80000 265.000
12.84500 280.000
12.89000 267.000
12.93500 275.000
12.98000 242.000
13.02500 243.000
13.07000 242.000
13.11500 246.000
13.16000 221.000
13.20500 244.000
13.25000 234.000
13.29500 240.000
13.34000 219.000
13.38500 219.000
13.43000 249.000
13.47500 228.000
13.52000 236.000
13.56500 208.000
13.61000 220.000
13.65500 221.000
13.70000 211.000
13.74500 220.000
13.79000 225.000
13.83500 220.000
13.88000 209.000
13.92500 210.000
13.97000 231.000
14.01500 234.000
14.06000 204.000
14.10500 242.000
14.15000 230.000
14.19500 207.000
14.24000 247.000
14.28500 209.000
14.33000 208.000
14.37500 209.000
14.42000 214.000
14.46500 220.000
14.51000 229.000
14.55500 223.000
14.60000 230.000
14.64500 236.000
14.69000 226.000
14.73500 254.000
14.78000 227.000
14.82500 259.000
14.87000 233.000
14.91500 240.000
14.96000 256.000
15.00500 295.000
15.05000 407.000
15.09500 268.000
15.14000 248.000
15.18500 241.000
15.23000 240.000
15.27500 260.000
15.32000 250.000
15.36500 245.000
15.41000 254.000
15.45500 260.000
15.50000 266.000
15.54500 255.000
15.59000 271.000
15.63500 262.000
15.68000 247.000
15.72500 247.000
15.77000 224.000
15.81500 235.000
15.86000 218.000
15.90500 237.000
15.95000 256.000
15.99500 235.000
16.04000 234.000
16.08500 244.000
16.13000 238.000
16.17500 205.000
16.22000 235.000
16.26500 231.000
16.31000 216.000
16.35500 254.000
16.40000 248.000
16.44500 249.000
16.49000 233.000
16.53500 228.000
16.58000 208.000
16.62500 231.000
16.67000 245.000
16.71500 237.000
16.76000 240.000
16.80500 260.000
16.85000 226.000
16.89500 226.000
16.94000 236.000
16.98500 276.000
17.03000 261.000
17.07500 293.000
17.12000 306.000
17.16500 307.000
17.21000 319.000
17.25500 303.000
17.30000 298.000
17.34500 294.000
17.39000 294.000
17.43500 264.000
17.48000 290.000
17.52500 306.000
17.57000 292.000
17.61500 294.000
17.66000 277.000
17.70500 261.000
17.75000 340.000
17.79500 305.000
17.84000 304.000
17.88500 360.000
17.93000 439.000
17.97500 375.000
18.02000 314.000
18.06500 294.000
18.11000 317.000
18.15500 288.000
18.20000 277.000
18.24500 273.000
18.29000 290.000
18.33500 286.000
18.38000 279.000
18.42500 274.000
18.47000 276.000
18.51500 276.000
18.56000 284.000
18.60500 305.000
18.65000 327.000
18.69500 408.000
18.74000 649.000
18.78500 480.000
18.83000 303.000
18.87500 300.000
18.92000 294.000
18.96500 286.000
19.01000 320.000
19.05500 306.000
19.10000 324.000
19.14500 383.000
19.19000 496.000
19.23500 757.000
19.28000 1000.000
19.32500 375.000
19.37000 311.000
19.41500 277.000
19.46000 298.000
19.50500 307.000
19.55000 272.000
19.59500 288.000
19.64000 262.000
19.68500 253.000
19.73000 274.000
19.77500 255.000
19.82000 251.000
19.86500 262.000
19.91000 203.000
19.95500 267.000
20.00000 234.000
20.04500 254.000
20.09000 241.000
20.13500 241.000
20.18000 234.000
20.22500 250.000
20.27000 242.000
20.31500 244.000
20.36000 232.000
20.40500 255.000
20.45000 212.000
20.49500 238.000
20.54000 246.000
20.58500 221.000
20.63000 236.000
20.67500 248.000
20.72000 242.000
20.76500 258.000
20.81000 253.000
20.85500 250.000
20.90000 251.000
20.94500 293.000
20.99000 344.000
21.03500 255.000
21.08000 248.000
21.12500 228.000
21.17000 212.000
21.21500 219.000
21.26000 250.000
21.30500 241.000
21.35000 234.000
21.39500 228.000
21.44000 252.000
21.48500 242.000
21.53000 239.000
21.57500 241.000
21.62000 247.000
21.66500 244.000
21.71000 238.000
21.75500 229.000
21.80000 240.000
21.84500 208.000
21.89000 245.000
21.93500 257.000
21.98000 243.000
22.02500 237.000
22.07000 247.000
22.11500 229.000
22.16000 232.000
22.20500 234.000
22.25000 224.000
22.29500 250.000
22.34000 246.000
22.38500 238.000
22.43000 263.000
22.47500 256.000
22.52000 221.000
22.56500 244.000
22.61000 242.000
22.65500 240.000
22.70000 230.000
22.74500 226.000
22.79000 243.000
22.83500 236.000
22.88000 229.000
22.92500 226.000
22.97000 262.000
23.01500 223.000
23.06000 246.000
23.10500 246.000
23.15000 239.000
23.19500 246.000
23.24000 216.000
23.28500 251.000
23.33000 254.000
23.37500 258.000
23.42000 260.000
23.46500 256.000
23.51000 252.000
23.55500 245.000
23.60000 240.000
23.64500 233.000
23.69000 246.000
23.73500 259.000
23.78000 222.000
23.82500 233.000
23.87000 239.000
23.91500 240.000
23.96000 248.000
24.00500 240.000
24.05000 255.000
24.09500 245.000
24.14000 267.000
24.18500 238.000
24.23000 284.000
24.27500 310.000
24.32000 356.000
24.36500 429.000
24.41000 396.000
24.45500 500.000
24.50000 740.000
24.54500 806.000
24.59000 462.000
24.63500 402.000
24.68000 374.000
24.72500 376.000
24.77000 361.000
24.81500 366.000
24.86000 340.000
24.90500 350.000
24.95000 396.000
24.99500 381.000
25.04000 470.000
25.08500 561.000
25.13000 456.000
25.17500 390.000
25.22000 419.000
25.26500 423.000
25.31000 419.000
25.35500 397.000
25.40000 410.000
25.44500 407.000
25.49000 448.000
25.53500 530.000
25.58000 454.000
25.62500 410.000
25.67000 493.000
25.71500 557.000
25.76000 608.000
25.80500 825.000
25.85000 645.000
25.89500 516.000
25.94000 480.000
25.98500 484.000
26.03000 482.000
26.07500 633.000
26.12000 766.000
26.16500 583.000
26.21000 514.000
26.25500 519.000
26.30000 534.000
26.34500 538.000
26.39000 544.000
26.43500 566.000
26.48000 745.000
26.52500 940.000
26.57000 1226.000
26.61500 1514.000
26.66000 912.000
26.70500 652.000
26.75000 525.000
26.79500 483.000
26.84000 470.000
26.88500 475.000
26.93000 473.000
26.97500 505.000
27.02000 498.000
27.06500 453.000
27.11000 488.000
27.15500 506.000
27.20000 488.000
27.24500 459.000
27.29000 501.000
27.33500 480.000
27.38000 501.000
27.42500 498.000
27.47000 537.000
27.51500 713.000
27.56000 1071.000
27.60500 1549.000
27.65000 990.000
27.69500 782.000
27.74000 811.000
27.78500 654.000
27.83000 557.000
27.87500 551.000
27.92000 558.000
27.96500 550.000
28.01000 570.000
28.05500 550.000
28.10000 562.000
28.14500 567.000
28.19000 560.000
28.23500 511.000
28.28000 514.000
28.32500 593.000
28.37000 642.000
28.41500 607.000
28.46000 520.000
28.50500 502.000
28.55000 502.000
28.59500 531.000
28.64000 486.000
28.68500 445.000
28.73000 414.000
28.77500 386.000
28.82000 382.000
28.86500 373.000
28.91000 357.000
28.95500 358.000
29.00000 354.000
29.04500 315.000
29.09000 340.000
29.13500 315.000
29.18000 326.000
29.22500 331.000
29.27000 339.000
29.31500 341.000
29.36000 300.000
29.40500 314.000
29.45000 332.000
29.49500 327.000
29.54000 339.000
29.58500 395.000
29.63000 361.000
29.67500 378.000
29.72000 343.000
29.76500 295.000
29.81000 290.000
29.85500 350.000
29.90000 348.000
29.94500 292.000
29.99000 276.000
30.03500 300.000
30.08000 271.000
30.12500 280.000
30.17000 283.000
30.21500 324.000
30.26000 318.000
30.30500 317.000
30.35000 413.000
30.39500 603.000
30.44000 1033.000
30.48500 816.000
30.53000 542.000
30.57500 419.000
30.62000 346.000
30.66500 331.000
30.71000 305.000
30.75500 297.000
30.80000 298.000
30.84500 290.000
30.89000 282.000
30.93500 341.000
30.98000 355.000
31.02500 286.000
31.07000 257.000
31.11500 246.000
31.16000 255.000
31.20500 257.000
31.25000 246.000
31.29500 249.000
31.34000 234.000
31.38500 259.000
31.43000 241.000
31.47500 237.000
31.52000 285.000
31.56500 282.000
31.61000 353.000
31.65500 359.000
31.70000 252.000
31.74500 237.000
31.79000 232.000
31.83500 234.000
31.88000 203.000
31.92500 230.000
31.97000 237.000
32.01500 308.000
32.06000 275.000
32.10500 236.000
32.15000 251.000
32.19500 204.000
32.24000 235.000
32.28500 208.000
32.33000 210.000
32.37500 218.000
32.42000 208.000
32.46500 232.000
32.51000 230.000
32.55500 215.000
32.60000 218.000
32.64500 269.000
32.69000 251.000
32.73500 214.000
32.78000 198.000
32.82500 192.000
32.87000 182.000
32.91500 186.000
32.96000 187.000
33.00500 183.000
33.05000 224.000
33.09500 245.000
33.14000 199.000
33.18500 192.000
33.23000 189.000
33.27500 181.000
33.32000 193.000
33.36500 171.000
33.41000 180.000
33.45500 166.000
33.50000 176.000
33.54500 185.000
33.59000 226.000
33.63500 179.000
33.68000 246.000
33.72500 320.000
33.77000 251.000
33.81500 187.000
33.86000 205.000
33.90500 224.000
33.95000 273.000
33.99500 294.000
34.04000 247.000
34.08500 195.000
34.13000 187.000
34.17500 177.000
34.22000 186.000
34.26500 210.000
34.31000 174.000
34.35500 183.000
34.40000 187.000
34.44500 182.000
34.49000 161.000
34.53500 185.000
34.58000 180.000
34.62500 205.000
34.67000 170.000
34.71500 173.000
34.76000 183.000
34.80500 196.000
34.85000 163.000
34.89500 179.000
34.94000 163.000
34.98500 206.000
35.03000 174.000
35.07500 176.000
35.12000 175.000
35.16500 172.000
35.21000 172.000
35.25500 183.000
35.30000 201.000
35.34500 253.000
35.39000 182.000
35.43500 165.000
35.48000 170.000
35.52500 176.000
35.57000 189.000
35.61500 171.000
35.66000 187.000
35.70500 178.000
35.75000 207.000
35.79500 343.000
35.84000 325.000
35.88500 196.000
35.93000 204.000
35.97500 169.000
36.02000 174.000
36.06500 188.000
36.11000 176.000
36.15500 169.000
36.20000 183.000
36.24500 181.000
36.29000 174.000
36.33500 201.000
36.38000 184.000
36.42500 197.000
36.47000 227.000
36.51500 228.000
36.56000 222.000
36.60500 194.000
36.65000 211.000
36.69500 183.000
36.74000 198.000
36.78500 168.000
36.83000 176.000
36.87500 159.000
36.92000 185.000
36.96500 154.000
37.01000 162.000
37.05500 160.000
37.10000 159.000
37.14500 162.000
37.19000 165.000
37.23500 164.000
37.28000 142.000
37.32500 138.000
37.37000 169.000
37.41500 156.000
37.46000 169.000
37.50500 164.000
37.55000 172.000
37.59500 179.000
37.64000 185.000
37.68500 158.000
37.73000 165.000
37.77500 138.000
37.82000 143.000
37.86500 138.000
37.91000 163.000
37.95500 147.000
38.00000 133.000
38.04500 140.000
38.09000 151.000
38.13500 147.000
38.18000 131.000
38.22500 138.000
38.27000 130.000
38.31500 143.000
38.36000 144.000
38.40500 152.000
38.45000 141.000
38.49500 132.000
38.54000 153.000
38.58500 176.000
38.63000 158.000
38.67500 157.000
38.72000 187.000
38.76500 233.000
38.81000 312.000
38.85500 241.000
38.90000 170.000
38.94500 167.000
38.99000 175.000
39.03500 194.000
39.08000 200.000
39.12500 159.000
39.17000 146.000
39.21500 167.000
39.26000 141.000
39.30500 133.000
39.35000 126.000
39.39500 124.000
39.44000 142.000
39.48500 144.000
39.53000 144.000
39.57500 146.000
39.62000 143.000
39.66500 157.000
39.71000 133.000
39.75500 129.000
39.80000 143.000
39.84500 148.000
39.89000 137.000
39.93500 158.000
39.98000 146.000
40.02500 152.000
40.07000 151.000
40.11500 143.000
40.16000 139.000
40.20500 138.000
40.25000 157.000
40.29500 130.000
40.34000 141.000
40.38500 143.000
40.43000 131.000
40.47500 137.000
40.52000 108.000
40.56500 143.000
40.61000 137.000
40.65500 163.000
40.70000 152.000
40.74500 164.000
40.79000 207.000
40.83500 219.000
40.88000 184.000
40.92500 129.000
40.97000 163.000
41.01500 125.000
41.06000 142.000
41.10500 120.000
41.15000 131.000
41.19500 122.000
41.24000 123.000
41.28500 133.000
41.33000 114.000
41.37500 122.000
41.42000 108.000
41.46500 121.000
41.51000 117.000
41.55500 126.000
41.60000 139.000
41.64500 121.000
41.69000 109.000
41.73500 117.000
41.78000 119.000
41.82500 135.000
41.87000 127.000
41.91500 132.000
41.96000 128.000
42.00500 114.000
42.05000 127.000
42.09500 125.000
42.14000 146.000
42.18500 140.000
42.23000 135.000
42.27500 162.000
42.32000 173.000
42.36500 156.000
42.41000 140.000
42.45500 109.000
42.50000 134.000
42.54500 141.000
42.59000 122.000
42.63500 123.000
42.68000 124.000
42.72500 140.000
42.77000 138.000
42.81500 126.000
42.86000 105.000
42.90500 120.000
42.95000 130.000
42.99500 115.000
43.04000 121.000
43.08500 118.000
43.13000 130.000
43.17500 158.000
43.22000 127.000
43.26500 120.000
43.31000 128.000
43.35500 150.000
43.40000 128.000
43.44500 133.000
43.49000 109.000
43.53500 103.000
43.58000 116.000
43.62500 109.000
43.67000 128.000
43.71500 105.000
43.76000 110.000
43.80500 108.000
43.85000 102.000
43.89500 115.000
43.94000 113.000
43.98500 125.000
44.03000 113.000
44.07500 95.000
44.12000 109.000
44.16500 122.000
44.21000 115.000
44.25500 137.000
44.30000 131.000
44.34500 115.000
44.39000 124.000
44.43500 123.000
44.48000 102.000
44.52500 114.000
44.57000 106.000
44.61500 122.000
44.66000 160.000
44.70500 140.000
44.75000 128.000
44.79500 112.000
44.84000 105.000
44.88500 118.000
44.93000 129.000
44.97500 117.000
45.02000 125.000
45.06500 102.000
45.11000 117.000
45.15500 112.000
45.20000 99.000
45.24500 121.000
45.29000 102.000
45.33500 104.000
45.38000 107.000
45.42500 135.000
45.47000 148.000
45.51500 127.000
45.56000 134.000
45.60500 142.000
45.65000 116.000
45.69500 122.000
45.74000 105.000
45.78500 110.000
45.83000 132.000
45.87500 111.000
45.92000 128.000
45.96500 127.000
46.01000 117.000
46.05500 105.000
46.10000 120.000
46.14500 111.000
46.19000 137.000
46.23500 121.000
46.28000 153.000
46.32500 123.000
46.37000 125.000
46.41500 119.000
46.46000 113.000
46.50500 110.000
46.55000 122.000
46.59500 102.000
46.64000 112.000
46.68500 108.000
46.73000 108.000
46.77500 121.000
46.82000 138.000
46.86500 124.000
46.91000 133.000
46.95500 124.000
47.00000 128.000
47.04500 202.000
47.09000 151.000
47.13500 128.000
47.18000 133.000
47.22500 125.000
47.27000 121.000
47.31500 109.000
47.36000 111.000
47.40500 109.000
47.45000 128.000
47.49500 128.000
47.54000 126.000
47.58500 117.000
47.63000 127.000
47.67500 126.000
47.72000 158.000
47.76500 144.000
47.81000 118.000
47.85500 128.000
47.90000 145.000
47.94500 155.000
47.99000 132.000
48.03500 111.000
48.08000 114.000
48.12500 120.000
48.17000 118.000
48.21500 111.000
48.26000 112.000
48.30500 128.000
48.35000 125.000
48.39500 128.000
48.44000 133.000
48.48500 121.000
48.53000 128.000
48.57500 98.000
48.62000 109.000
48.66500 103.000
48.71000 106.000
48.75500 104.000
48.80000 130.000
48.84500 100.000
48.89000 104.000
48.93500 114.000
48.98000 118.000
49.02500 140.000
49.07000 137.000
49.11500 137.000
49.16000 119.000
49.20500 104.000
49.25000 114.000
49.29500 104.000
49.34000 115.000
49.38500 110.000
49.43000 115.000
49.47500 104.000
49.52000 112.000
49.56500 103.000
49.61000 123.000
49.65500 111.000
49.70000 109.000
49.74500 129.000
49.79000 116.000
49.83500 137.000
49.88000 134.000
49.92500 127.000
49.97000 120.000
50.01500 132.000
50.06000 122.000
50.10500 126.000
50.15000 106.000
50.19500 112.000
50.24000 125.000
50.28500 139.000
50.33000 125.000
50.37500 148.000
50.42000 126.000
50.46500 120.000
50.51000 145.000
50.55500 135.000
50.60000 135.000
50.64500 139.000
50.69000 141.000
50.73500 141.000
50.78000 126.000
50.82500 113.000
50.87000 112.000
50.91500 97.000
50.96000 105.000
51.00500 117.000
51.05000 114.000
51.09500 109.000
51.14000 112.000
51.18500 118.000
51.23000 129.000
51.27500 125.000
51.32000 111.000
51.36500 102.000
51.41000 111.000
51.45500 107.000
51.50000 98.000
51.54500 117.000
51.59000 101.000
51.63500 104.000
51.68000 123.000
51.72500 120.000
51.77000 104.000
51.81500 111.000
51.86000 104.000
51.90500 100.000
51.95000 111.000
51.99500 102.000
52.04000 110.000
52.08500 114.000
52.13000 95.000
52.17500 105.000
52.22000 130.000
52.26500 131.000
52.31000 138.000
52.35500 124.000
52.40000 117.000
52.44500 115.000
52.49000 107.000
52.53500 100.000
52.58000 98.000
52.62500 103.000
52.67000 108.000
52.71500 121.000
52.76000 129.000
52.80500 125.000
52.85000 127.000
52.89500 127.000
52.94000 145.000
52.98500 145.000
53.03000 136.000
53.07500 127.000
53.12000 119.000
53.16500 117.000
53.21000 99.000
53.25500 94.000
53.30000 129.000
53.34500 139.000
53.39000 150.000
53.43500 143.000
53.48000 129.000
53.52500 139.000
53.57000 118.000
53.61500 132.000
53.66000 127.000
53.70500 115.000
53.75000 131.000
53.79500 122.000
53.84000 134.000
53.88500 131.000
53.93000 143.000
53.97500 176.000
54.02000 139.000
54.06500 114.000
54.11000 135.000
54.15500 161.000
54.20000 144.000
54.24500 110.000
54.29000 103.000
54.33500 106.000
54.38000 108.000
54.42500 112.000
54.47000 107.000
54.51500 109.000
54.56000 96.000
54.60500 119.000
54.65000 105.000
54.69500 130.000
54.74000 129.000
54.78500 144.000
54.83000 145.000
54.87500 113.000
54.92000 108.000
54.96500 116.000
55.01000 131.000
55.05500 134.000
55.10000 142.000
55.14500 101.000
55.19000 123.000
55.23500 108.000
55.28000 114.000
55.32500 124.000
55.37000 125.000
55.41500 94.000
55.46000 99.000
55.50500 104.000
55.55000 125.000
55.59500 115.000
55.64000 105.000
55.68500 136.000
55.73000 150.000
55.77500 138.000
55.82000 121.000
55.86500 118.000
55.91000 124.000
55.95500 99.000
56.00000 122.000
56.04500 111.000
56.09000 112.000
56.13500 120.000
56.18000 121.000
56.22500 127.000
56.27000 106.000
56.31500 118.000
56.36000 101.000
56.40500 106.000
56.45000 102.000
56.49500 95.000
56.54000 105.000
56.58500 109.000
56.63000 105.000
56.67500 101.000
56.72000 102.000
56.76500 111.000
56.81000 91.000
56.85500 117.000
56.90000 126.000
56.94500 108.000
56.99000 105.000
57.03500 106.000
57.08000 91.000
57.12500 100.000
57.17000 105.000
57.21500 93.000
57.26000 96.000
57.30500 100.000
57.35000 105.000
57.39500 104.000
57.44000 103.000
57.48500 96.000
57.53000 89.000
57.57500 94.000
57.62000 103.000
57.66500 109.000
57.71000 100.000
57.75500 103.000
57.80000 105.000
57.84500 91.000
57.89000 102.000
57.93500 95.000
57.98000 103.000
58.02500 85.000
58.07000 107.000
58.11500 115.000
58.16000 102.000
58.20500 101.000
58.25000 112.000
58.29500 103.000
58.34000 102.000
58.38500 120.000
58.43000 129.000
58.47500 134.000
58.52000 116.000
58.56500 93.000
58.61000 120.000
58.65500 135.000
58.70000 132.000
58.74500 108.000
58.79000 99.000
58.83500 110.000
58.88000 100.000
58.92500 110.000
58.97000 93.000
59.01500 97.000
59.06000 99.000
59.10500 86.000
59.15000 107.000
59.19500 97.000
59.24000 102.000
59.28500 99.000
59.33000 113.000
59.37500 94.000
59.42000 102.000
59.46500 105.000
59.51000 108.000
59.55500 111.000
59.60000 86.000
59.64500 92.000
59.69000 83.000
59.73500 92.000
59.78000 99.000
59.82500 98.000
59.87000 100.000
59.91500 121.000
59.96000 110.000
60.00500 102.000
60.05000 100.000
60.09500 89.000
60.14000 98.000
60.18500 87.000
60.23000 102.000
60.27500 106.000
60.32000 88.000
60.36500 98.000
60.41000 90.000
60.45500 93.000
60.50000 95.000
60.54500 108.000
60.59000 76.000
60.63500 88.000
60.68000 98.000
60.72500 99.000
60.77000 73.000
60.81500 81.000
60.86000 89.000
60.90500 87.000
60.95000 76.000
60.99500 83.000
61.04000 94.000
61.08500 85.000
61.13000 84.000
61.17500 94.000
61.22000 82.000
61.26500 92.000
61.31000 102.000
61.35500 93.000
61.40000 72.000
61.44500 98.000
61.49000 83.000
61.53500 90.000
61.58000 83.000
61.62500 94.000
61.67000 94.000
61.71500 99.000
61.76000 86.000
61.80500 91.000
61.85000 97.000
61.89500 88.000
61.94000 100.000
61.98500 83.000