File: ISoD/xrd_data/HSC071.xy
2.00000 1.000
2.04500 2.000
2.09000 5.000
2.13500 3.000
2.18000 2.000
2.22500 4.000
2.27000 4.000
2.31500 6.000
2.36000 1.000
2.40500 2.000
2.45000 1.000
2.49500 3.000
2.54000 2.000
2.58500 3.000
2.63000 0.000
2.67500 6.000
2.72000 1.000
2.76500 3.000
2.81000 5.000
2.85500 5.000
2.90000 5.000
2.94500 8.000
2.99000 20.000
3.03500 70.000
3.08000 200.000
3.12500 297.000
3.17000 332.000
3.21500 338.000
3.26000 312.000
3.30500 337.000
3.35000 335.000
3.39500 322.000
3.44000 314.000
3.48500 322.000
3.53000 303.000
3.57500 309.000
3.62000 292.000
3.66500 310.000
3.71000 300.000
3.75500 299.000
3.80000 295.000
3.84500 314.000
3.89000 293.000
3.93500 309.000
3.98000 281.000
4.02500 328.000
4.07000 314.000
4.11500 320.000
4.16000 293.000
4.20500 298.000
4.25000 277.000
4.29500 296.000
4.34000 288.000
4.38500 292.000
4.43000 318.000
4.47500 302.000
4.52000 317.000
4.56500 310.000
4.61000 349.000
4.65500 298.000
4.70000 296.000
4.74500 294.000
4.79000 309.000
4.83500 312.000
4.88000 296.000
4.92500 315.000
4.97000 291.000
5.01500 328.000
5.06000 339.000
5.10500 332.000
5.15000 350.000
5.19500 343.000
5.24000 330.000
5.28500 330.000
5.33000 354.000
5.37500 323.000
5.42000 347.000
5.46500 338.000
5.51000 330.000
5.55500 335.000
5.60000 322.000
5.64500 345.000
5.69000 367.000
5.73500 329.000
5.78000 317.000
5.82500 358.000
5.87000 350.000
5.91500 345.000
5.96000 356.000
6.00500 340.000
6.05000 345.000
6.09500 371.000
6.14000 388.000
6.18500 388.000
6.23000 414.000
6.27500 389.000
6.32000 382.000
6.36500 352.000
6.41000 346.000
6.45500 375.000
6.50000 369.000
6.54500 346.000
6.59000 356.000
6.63500 357.000
6.68000 319.000
6.72500 330.000
6.77000 368.000
6.81500 336.000
6.86000 335.000
6.90500 339.000
6.95000 345.000
6.99500 365.000
7.04000 365.000
7.08500 377.000
7.13000 342.000
7.17500 363.000
7.22000 380.000
7.26500 345.000
7.31000 369.000
7.35500 387.000
7.40000 363.000
7.44500 387.000
7.49000 379.000
7.53500 372.000
7.58000 365.000
7.62500 353.000
7.67000 351.000
7.71500 407.000
7.76000 359.000
7.80500 369.000
7.85000 368.000
7.89500 353.000
7.94000 361.000
7.98500 370.000
8.03000 345.000
8.07500 402.000
8.12000 379.000
8.16500 383.000
8.21000 375.000
8.25500 374.000
8.30000 379.000
8.34500 372.000
8.39000 375.000
8.43500 358.000
8.48000 341.000
8.52500 384.000
8.57000 365.000
8.61500 364.000
8.66000 386.000
8.70500 383.000
8.75000 390.000
8.79500 393.000
8.84000 399.000
8.88500 381.000
8.93000 389.000
8.97500 382.000
9.02000 392.000
9.06500 367.000
9.11000 384.000
9.15500 374.000
9.20000 381.000
9.24500 349.000
9.29000 382.000
9.33500 386.000
9.38000 376.000
9.42500 404.000
9.47000 378.000
9.51500 412.000
9.56000 376.000
9.60500 368.000
9.65000 371.000
9.69500 375.000
9.74000 372.000
9.78500 375.000
9.83000 376.000
9.87500 407.000
9.92000 416.000
9.96500 418.000
10.01000 459.000
10.05500 416.000
10.10000 460.000
10.14500 441.000
10.19000 402.000
10.23500 448.000
10.28000 432.000
10.32500 464.000
10.37000 475.000
10.41500 455.000
10.46000 466.000
10.50500 447.000
10.55000 439.000
10.59500 464.000
10.64000 469.000
10.68500 469.000
10.73000 459.000
10.77500 493.000
10.82000 472.000
10.86500 478.000
10.91000 506.000
10.95500 553.000
11.00000 529.000
11.04500 529.000
11.09000 476.000
11.13500 447.000
11.18000 460.000
11.22500 439.000
11.27000 473.000
11.31500 439.000
11.36000 432.000
11.40500 431.000
11.45000 434.000
11.49500 483.000
11.54000 462.000
11.58500 482.000
11.63000 438.000
11.67500 481.000
11.72000 523.000
11.76500 477.000
11.81000 510.000
11.85500 546.000
11.90000 572.000
11.94500 541.000
11.99000 588.000
12.03500 595.000
12.08000 608.000
12.12500 570.000
12.17000 583.000
12.21500 514.000
12.26000 512.000
12.30500 516.000
12.35000 468.000
12.39500 451.000
12.44000 452.000
12.48500 453.000
12.53000 457.000
12.57500 428.000
12.62000 410.000
12.66500 413.000
12.71000 434.000
12.75500 400.000
12.80000 386.000
12.84500 415.000
12.89000 420.000
12.93500 387.000
12.98000 406.000
13.02500 393.000
13.07000 430.000
13.11500 388.000
13.16000 380.000
13.20500 396.000
13.25000 392.000
13.29500 384.000
13.34000 391.000
13.38500 382.000
13.43000 398.000
13.47500 393.000
13.52000 377.000
13.56500 373.000
13.61000 388.000
13.65500 379.000
13.70000 404.000
13.74500 410.000
13.79000 378.000
13.83500 379.000
13.88000 387.000
13.92500 389.000
13.97000 418.000
14.01500 385.000
14.06000 410.000
14.10500 418.000
14.15000 401.000
14.19500 419.000
14.24000 386.000
14.28500 429.000
14.33000 386.000
14.37500 365.000
14.42000 387.000
14.46500 384.000
14.51000 415.000
14.55500 396.000
14.60000 398.000
14.64500 376.000
14.69000 412.000
14.73500 382.000
14.78000 395.000
14.82500 386.000
14.87000 393.000
14.91500 402.000
14.96000 414.000
15.00500 384.000
15.05000 389.000
15.09500 401.000
15.14000 364.000
15.18500 387.000
15.23000 405.000
15.27500 420.000
15.32000 365.000
15.36500 367.000
15.41000 372.000
15.45500 376.000
15.50000 369.000
15.54500 427.000
15.59000 383.000
15.63500 388.000
15.68000 373.000
15.72500 403.000
15.77000 381.000
15.81500 404.000
15.86000 355.000
15.90500 397.000
15.95000 406.000
15.99500 422.000
16.04000 394.000
16.08500 390.000
16.13000 415.000
16.17500 409.000
16.22000 367.000
16.26500 379.000
16.31000 411.000
16.35500 400.000
16.40000 398.000
16.44500 395.000
16.49000 389.000
16.53500 418.000
16.58000 414.000
16.62500 383.000
16.67000 405.000
16.71500 416.000
16.76000 411.000
16.80500 405.000
16.85000 393.000
16.89500 389.000
16.94000 430.000
16.98500 370.000
17.03000 414.000
17.07500 427.000
17.12000 412.000
17.16500 368.000
17.21000 406.000
17.25500 437.000
17.30000 385.000
17.34500 390.000
17.39000 432.000
17.43500 422.000
17.48000 427.000
17.52500 442.000
17.57000 439.000
17.61500 405.000
17.66000 434.000
17.70500 417.000
17.75000 421.000
17.79500 426.000
17.84000 397.000
17.88500 416.000
17.93000 403.000
17.97500 388.000
18.02000 419.000
18.06500 364.000
18.11000 403.000
18.15500 435.000
18.20000 442.000
18.24500 400.000
18.29000 424.000
18.33500 426.000
18.38000 407.000
18.42500 409.000
18.47000 425.000
18.51500 386.000
18.56000 425.000
18.60500 413.000
18.65000 438.000
18.69500 436.000
18.74000 434.000
18.78500 455.000
18.83000 450.000
18.87500 405.000
18.92000 418.000
18.96500 444.000
19.01000 406.000
19.05500 446.000
19.10000 405.000
19.14500 457.000
19.19000 422.000
19.23500 422.000
19.28000 435.000
19.32500 453.000
19.37000 435.000
19.41500 432.000
19.46000 444.000
19.50500 411.000
19.55000 423.000
19.59500 430.000
19.64000 423.000
19.68500 448.000
19.73000 428.000
19.77500 455.000
19.82000 446.000
19.86500 402.000
19.91000 425.000
19.95500 398.000
20.00000 430.000
20.04500 446.000
20.09000 425.000
20.13500 458.000
20.18000 435.000
20.22500 454.000
20.27000 437.000
20.31500 440.000
20.36000 425.000
20.40500 460.000
20.45000 443.000
20.49500 456.000
20.54000 441.000
20.58500 464.000
20.63000 476.000
20.67500 452.000
20.72000 534.000
20.76500 512.000
20.81000 496.000
20.85500 532.000
20.90000 562.000
20.94500 606.000
20.99000 645.000
21.03500 587.000
21.08000 562.000
21.12500 566.000
21.17000 517.000
21.21500 517.000
21.26000 476.000
21.30500 514.000
21.35000 467.000
21.39500 471.000
21.44000 497.000
21.48500 464.000
21.53000 477.000
21.57500 467.000
21.62000 488.000
21.66500 439.000
21.71000 434.000
21.75500 420.000
21.80000 447.000
21.84500 437.000
21.89000 457.000
21.93500 442.000
21.98000 456.000
22.02500 460.000
22.07000 459.000
22.11500 460.000
22.16000 452.000
22.20500 424.000
22.25000 474.000
22.29500 439.000
22.34000 451.000
22.38500 473.000
22.43000 437.000
22.47500 465.000
22.52000 455.000
22.56500 456.000
22.61000 453.000
22.65500 444.000
22.70000 460.000
22.74500 449.000
22.79000 481.000
22.83500 438.000
22.88000 415.000
22.92500 447.000
22.97000 422.000
23.01500 443.000
23.06000 477.000
23.10500 448.000
23.15000 485.000
23.19500 447.000
23.24000 470.000
23.28500 465.000
23.33000 452.000
23.37500 455.000
23.42000 420.000
23.46500 420.000
23.51000 446.000
23.55500 473.000
23.60000 456.000
23.64500 465.000
23.69000 487.000
23.73500 490.000
23.78000 444.000
23.82500 442.000
23.87000 492.000
23.91500 470.000
23.96000 486.000
24.00500 477.000
24.05000 482.000
24.09500 459.000
24.14000 481.000
24.18500 495.000
24.23000 489.000
24.27500 539.000
24.32000 537.000
24.36500 508.000
24.41000 524.000
24.45500 511.000
24.50000 513.000
24.54500 489.000
24.59000 525.000
24.63500 501.000
24.68000 490.000
24.72500 507.000
24.77000 525.000
24.81500 521.000
24.86000 523.000
24.90500 525.000
24.95000 503.000
24.99500 521.000
25.04000 535.000
25.08500 514.000
25.13000 440.000
25.17500 486.000
25.22000 515.000
25.26500 521.000
25.31000 531.000
25.35500 492.000
25.40000 523.000
25.44500 523.000
25.49000 552.000
25.53500 561.000
25.58000 561.000
25.62500 535.000
25.67000 566.000
25.71500 556.000
25.76000 554.000
25.80500 557.000
25.85000 543.000
25.89500 557.000
25.94000 579.000
25.98500 601.000
26.03000 558.000
26.07500 624.000
26.12000 640.000
26.16500 686.000
26.21000 732.000
26.25500 737.000
26.30000 812.000
26.34500 873.000
26.39000 912.000
26.43500 894.000
26.48000 850.000
26.52500 823.000
26.57000 764.000
26.61500 722.000
26.66000 732.000
26.70500 681.000
26.75000 748.000
26.79500 662.000
26.84000 608.000
26.88500 690.000
26.93000 636.000
26.97500 661.000
27.02000 630.000
27.06500 640.000
27.11000 624.000
27.15500 659.000
27.20000 607.000
27.24500 581.000
27.29000 594.000
27.33500 630.000
27.38000 564.000
27.42500 553.000
27.47000 605.000
27.51500 592.000
27.56000 595.000
27.60500 599.000
27.65000 576.000
27.69500 615.000
27.74000 650.000
27.78500 652.000
27.83000 656.000
27.87500 684.000
27.92000 711.000
27.96500 711.000
28.01000 746.000
28.05500 774.000
28.10000 775.000
28.14500 691.000
28.19000 627.000
28.23500 565.000
28.28000 554.000
28.32500 513.000
28.37000 500.000
28.41500 491.000
28.46000 486.000
28.50500 514.000
28.55000 505.000
28.59500 498.000
28.64000 503.000
28.68500 469.000
28.73000 494.000
28.77500 512.000
28.82000 543.000
28.86500 514.000
28.91000 542.000
28.95500 562.000
29.00000 669.000
29.04500 690.000
29.09000 655.000
29.13500 658.000
29.18000 596.000
29.22500 600.000
29.27000 559.000
29.31500 557.000
29.36000 535.000
29.40500 553.000
29.45000 488.000
29.49500 484.000
29.54000 438.000
29.58500 451.000
29.63000 430.000
29.67500 459.000
29.72000 426.000
29.76500 403.000
29.81000 437.000
29.85500 437.000
29.90000 422.000
29.94500 400.000
29.99000 407.000
30.03500 425.000
30.08000 378.000
30.12500 390.000
30.17000 394.000
30.21500 379.000
30.26000 385.000
30.30500 393.000
30.35000 368.000
30.39500 360.000
30.44000 377.000
30.48500 381.000
30.53000 360.000
30.57500 366.000
30.62000 370.000
30.66500 351.000
30.71000 381.000
30.75500 353.000
30.80000 337.000
30.84500 345.000
30.89000 361.000
30.93500 341.000
30.98000 345.000
31.02500 354.000
31.07000 355.000
31.11500 361.000
31.16000 332.000
31.20500 364.000
31.25000 342.000
31.29500 334.000
31.34000 368.000
31.38500 335.000
31.43000 314.000
31.47500 337.000
31.52000 342.000
31.56500 327.000
31.61000 328.000
31.65500 372.000
31.70000 356.000
31.74500 318.000
31.79000 322.000
31.83500 334.000
31.88000 309.000
31.92500 305.000
31.97000 334.000
32.01500 329.000
32.06000 372.000
32.10500 359.000
32.15000 366.000
32.19500 362.000
32.24000 411.000
32.28500 395.000
32.33000 415.000
32.37500 384.000
32.42000 366.000
32.46500 369.000
32.51000 349.000
32.55500 331.000
32.60000 357.000
32.64500 335.000
32.69000 321.000
32.73500 325.000
32.78000 294.000
32.82500 304.000
32.87000 296.000
32.91500 306.000
32.96000 326.000
33.00500 300.000
33.05000 310.000
33.09500 352.000
33.14000 287.000
33.18500 284.000
33.23000 294.000
33.27500 313.000
33.32000 274.000
33.36500 289.000
33.41000 302.000
33.45500 288.000
33.50000 317.000
33.54500 291.000
33.59000 304.000
33.63500 281.000
33.68000 303.000
33.72500 284.000
33.77000 287.000
33.81500 294.000
33.86000 280.000
33.90500 298.000
33.95000 263.000
33.99500 303.000
34.04000 281.000
34.08500 293.000
34.13000 268.000
34.17500 287.000
34.22000 272.000
34.26500 269.000
34.31000 262.000
34.35500 260.000
34.40000 275.000
34.44500 251.000
34.49000 286.000
34.53500 261.000
34.58000 262.000
34.62500 300.000
34.67000 234.000
34.71500 240.000
34.76000 246.000
34.80500 257.000
34.85000 259.000
34.89500 270.000
34.94000 283.000
34.98500 258.000
35.03000 242.000
35.07500 275.000
35.12000 254.000
35.16500 252.000
35.21000 253.000
35.25500 266.000
35.30000 242.000
35.34500 275.000
35.39000 238.000
35.43500 249.000
35.48000 227.000
35.52500 232.000
35.57000 233.000
35.61500 247.000
35.66000 233.000
35.70500 249.000
35.75000 224.000
35.79500 232.000
35.84000 253.000
35.88500 253.000
35.93000 260.000
35.97500 223.000
36.02000 227.000
36.06500 239.000
36.11000 252.000
36.15500 234.000
36.20000 244.000
36.24500 255.000
36.29000 229.000
36.33500 229.000
36.38000 239.000
36.42500 226.000
36.47000 215.000
36.51500 240.000
36.56000 215.000
36.60500 193.000
36.65000 240.000
36.69500 232.000
36.74000 220.000
36.78500 213.000
36.83000 207.000
36.87500 213.000
36.92000 232.000
36.96500 220.000
37.01000 240.000
37.05500 210.000
37.10000 210.000
37.14500 215.000
37.19000 211.000
37.23500 195.000
37.28000 199.000
37.32500 205.000
37.37000 211.000
37.41500 207.000
37.46000 211.000
37.50500 201.000
37.55000 227.000
37.59500 236.000
37.64000 221.000
37.68500 183.000
37.73000 203.000
37.77500 219.000
37.82000 211.000
37.86500 207.000
37.91000 206.000
37.95500 190.000
38.00000 210.000
38.04500 211.000
38.09000 201.000
38.13500 202.000
38.18000 198.000
38.22500 200.000
38.27000 212.000
38.31500 199.000
38.36000 187.000
38.40500 211.000
38.45000 206.000
38.49500 184.000
38.54000 197.000
38.58500 212.000
38.63000 192.000
38.67500 184.000
38.72000 183.000
38.76500 207.000
38.81000 190.000
38.85500 217.000
38.90000 187.000
38.94500 188.000
38.99000 236.000
39.03500 205.000
39.08000 208.000
39.12500 218.000
39.17000 207.000
39.21500 189.000
39.26000 177.000
39.30500 205.000
39.35000 204.000
39.39500 224.000
39.44000 192.000
39.48500 218.000
39.53000 197.000
39.57500 181.000
39.62000 184.000
39.66500 202.000
39.71000 183.000
39.75500 200.000
39.80000 193.000
39.84500 190.000
39.89000 199.000
39.93500 186.000
39.98000 195.000
40.02500 196.000
40.07000 188.000
40.11500 185.000
40.16000 188.000
40.20500 175.000
40.25000 201.000
40.29500 187.000
40.34000 177.000
40.38500 181.000
40.43000 195.000
40.47500 196.000
40.52000 174.000
40.56500 183.000
40.61000 199.000
40.65500 210.000
40.70000 203.000
40.74500 198.000
40.79000 186.000
40.83500 169.000
40.88000 179.000
40.92500 183.000
40.97000 168.000
41.01500 200.000
41.06000 191.000
41.10500 200.000
41.15000 185.000
41.19500 200.000
41.24000 193.000
41.28500 180.000
41.33000 184.000
41.37500 202.000
41.42000 197.000
41.46500 191.000
41.51000 170.000
41.55500 206.000
41.60000 181.000
41.64500 167.000
41.69000 201.000
41.73500 174.000
41.78000 188.000
41.82500 190.000
41.87000 187.000
41.91500 168.000
41.96000 184.000
42.00500 190.000
42.05000 183.000
42.09500 180.000
42.14000 203.000
42.18500 195.000
42.23000 182.000
42.27500 230.000
42.32000 199.000
42.36500 192.000
42.41000 220.000
42.45500 191.000
42.50000 212.000
42.54500 189.000
42.59000 201.000
42.63500 222.000
42.68000 189.000
42.72500 208.000
42.77000 227.000
42.81500 224.000
42.86000 229.000
42.90500 198.000
42.95000 205.000
42.99500 189.000
43.04000 208.000
43.08500 203.000
43.13000 209.000
43.17500 203.000
43.22000 185.000
43.26500 200.000
43.31000 192.000
43.35500 208.000
43.40000 176.000
43.44500 167.000
43.49000 196.000
43.53500 200.000
43.58000 187.000
43.62500 190.000
43.67000 193.000
43.71500 197.000
43.76000 200.000
43.80500 189.000
43.85000 179.000
43.89500 177.000
43.94000 188.000
43.98500 176.000
44.03000 201.000
44.07500 168.000
44.12000 192.000
44.16500 209.000
44.21000 177.000
44.25500 194.000
44.30000 172.000
44.34500 199.000
44.39000 222.000
44.43500 180.000
44.48000 207.000
44.52500 222.000
44.57000 201.000
44.61500 206.000
44.66000 231.000
44.70500 202.000
44.75000 202.000
44.79500 214.000
44.84000 226.000
44.88500 208.000
44.93000 215.000
44.97500 217.000
45.02000 225.000
45.06500 197.000
45.11000 204.000
45.15500 209.000
45.20000 199.000
45.24500 195.000
45.29000 198.000
45.33500 192.000
45.38000 199.000
45.42500 197.000
45.47000 206.000
45.51500 185.000
45.56000 185.000
45.60500 191.000
45.65000 176.000
45.69500 193.000
45.74000 192.000
45.78500 185.000
45.83000 180.000
45.87500 197.000
45.92000 190.000
45.96500 181.000
46.01000 188.000
46.05500 196.000
46.10000 197.000
46.14500 189.000
46.19000 172.000
46.23500 167.000
46.28000 173.000
46.32500 168.000
46.37000 163.000
46.41500 197.000
46.46000 175.000
46.50500 181.000
46.55000 178.000
46.59500 183.000
46.64000 158.000
46.68500 166.000
46.73000 199.000
46.77500 192.000
46.82000 174.000
46.86500 171.000
46.91000 163.000
46.95500 168.000
47.00000 167.000
47.04500 177.000
47.09000 177.000
47.13500 177.000
47.18000 161.000
47.22500 152.000
47.27000 153.000
47.31500 192.000
47.36000 177.000
47.40500 176.000
47.45000 166.000
47.49500 189.000
47.54000 146.000
47.58500 158.000
47.63000 157.000
47.67500 167.000
47.72000 162.000
47.76500 170.000
47.81000 160.000
47.85500 144.000
47.90000 150.000
47.94500 171.000
47.99000 182.000
48.03500 184.000
48.08000 141.000
48.12500 151.000
48.17000 143.000
48.21500 165.000
48.26000 152.000
48.30500 167.000
48.35000 165.000
48.39500 164.000
48.44000 144.000
48.48500 170.000
48.53000 160.000
48.57500 141.000
48.62000 159.000
48.66500 165.000
48.71000 157.000
48.75500 168.000
48.80000 150.000
48.84500 158.000
48.89000 140.000
48.93500 170.000
48.98000 158.000
49.02500 173.000
49.07000 155.000
49.11500 147.000
49.16000 172.000
49.20500 158.000
49.25000 156.000
49.29500 163.000
49.34000 152.000
49.38500 161.000
49.43000 178.000
49.47500 161.000
49.52000 158.000
49.56500 171.000
49.61000 148.000
49.65500 146.000
49.70000 154.000
49.74500 152.000
49.79000 165.000
49.83500 144.000
49.88000 164.000
49.92500 163.000
49.97000 146.000
50.01500 169.000
50.06000 176.000
50.10500 166.000
50.15000 182.000
50.19500 147.000
50.24000 181.000
50.28500 162.000
50.33000 165.000
50.37500 151.000
50.42000 162.000
50.46500 167.000
50.51000 160.000
50.55500 166.000
50.60000 159.000
50.64500 184.000
50.69000 168.000
50.73500 165.000
50.78000 179.000
50.82500 185.000
50.87000 188.000
50.91500 188.000
50.96000 183.000
51.00500 192.000
51.05000 183.000
51.09500 159.000
51.14000 181.000
51.18500 173.000
51.23000 191.000
51.27500 165.000
51.32000 165.000
51.36500 153.000
51.41000 162.000
51.45500 155.000
51.50000 153.000
51.54500 161.000
51.59000 153.000
51.63500 168.000
51.68000 153.000
51.72500 156.000
51.77000 151.000
51.81500 149.000
51.86000 151.000
51.90500 148.000
51.95000 152.000
51.99500 143.000
52.04000 138.000
52.08500 153.000
52.13000 155.000
52.17500 150.000
52.22000 177.000
52.26500 147.000
52.31000 151.000
52.35500 142.000
52.40000 178.000
52.44500 139.000
52.49000 159.000
52.53500 145.000
52.58000 155.000
52.62500 139.000
52.67000 148.000
52.71500 139.000
52.76000 141.000
52.80500 151.000
52.85000 142.000
52.89500 153.000
52.94000 152.000
52.98500 124.000
53.03000 134.000
53.07500 140.000
53.12000 144.000
53.16500 154.000
53.21000 164.000
53.25500 166.000
53.30000 155.000
53.34500 134.000
53.39000 156.000
53.43500 157.000
53.48000 168.000
53.52500 161.000
53.57000 157.000
53.61500 151.000
53.66000 145.000
53.70500 145.000
53.75000 143.000
53.79500 171.000
53.84000 147.000
53.88500 148.000
53.93000 134.000
53.97500 167.000
54.02000 162.000
54.06500 172.000
54.11000 170.000
54.15500 170.000
54.20000 178.000
54.24500 181.000
54.29000 164.000
54.33500 182.000
54.38000 188.000
54.42500 186.000
54.47000 164.000
54.51500 179.000
54.56000 181.000
54.60500 171.000
54.65000 178.000
54.69500 177.000
54.74000 162.000
54.78500 171.000
54.83000 157.000
54.87500 162.000
54.92000 150.000
54.96500 174.000
55.01000 161.000
55.05500 190.000
55.10000 166.000
55.14500 149.000
55.19000 164.000
55.23500 152.000
55.28000 158.000
55.32500 164.000
55.37000 154.000
55.41500 150.000
55.46000 160.000
55.50500 159.000
55.55000 134.000
55.59500 159.000
55.64000 156.000
55.68500 154.000
55.73000 146.000
55.77500 150.000
55.82000 140.000
55.86500 141.000
55.91000 132.000
55.95500 151.000
56.00000 151.000
56.04500 143.000
56.09000 137.000
56.13500 142.000
56.18000 155.000
56.22500 143.000
56.27000 145.000
56.31500 143.000
56.36000 149.000
56.40500 118.000
56.45000 162.000
56.49500 144.000
56.54000 134.000
56.58500 141.000
56.63000 152.000
56.67500 149.000
56.72000 146.000
56.76500 129.000
56.81000 129.000
56.85500 125.000
56.90000 135.000
56.94500 150.000
56.99000 127.000
57.03500 148.000
57.08000 144.000
57.12500 137.000
57.17000 139.000
57.21500 135.000
57.26000 145.000
57.30500 138.000
57.35000 137.000
57.39500 146.000
57.44000 141.000
57.48500 142.000
57.53000 133.000
57.57500 140.000
57.62000 136.000
57.66500 141.000
57.71000 153.000
57.75500 136.000
57.80000 134.000
57.84500 164.000
57.89000 127.000
57.93500 137.000
57.98000 120.000
58.02500 143.000
58.07000 135.000
58.11500 141.000
58.16000 153.000
58.20500 127.000
58.25000 128.000
58.29500 128.000
58.34000 133.000
58.38500 147.000
58.43000 146.000
58.47500 127.000
58.52000 131.000
58.56500 128.000
58.61000 136.000
58.65500 140.000
58.70000 138.000
58.74500 137.000
58.79000 134.000
58.83500 138.000
58.88000 136.000
58.92500 142.000
58.97000 122.000
59.01500 130.000
59.06000 126.000
59.10500 130.000
59.15000 109.000
59.19500 130.000
59.24000 151.000
59.28500 142.000
59.33000 131.000
59.37500 133.000
59.42000 157.000
59.46500 134.000
59.51000 126.000
59.55500 132.000
59.60000 135.000
59.64500 114.000
59.69000 123.000
59.73500 146.000
59.78000 134.000
59.82500 128.000
59.87000 141.000
59.91500 133.000
59.96000 121.000
60.00500 126.000
60.05000 141.000
60.09500 145.000
60.14000 136.000
60.18500 126.000
60.23000 146.000
60.27500 120.000
60.32000 126.000
60.36500 133.000
60.41000 130.000
60.45500 151.000
60.50000 138.000
60.54500 117.000
60.59000 141.000
60.63500 118.000
60.68000 135.000
60.72500 134.000
60.77000 133.000
60.81500 131.000
60.86000 128.000
60.90500 127.000
60.95000 126.000
60.99500 126.000
61.04000 121.000
61.08500 127.000
61.13000 110.000
61.17500 148.000
61.22000 109.000
61.26500 120.000
61.31000 125.000
61.35500 128.000
61.40000 118.000
61.44500 131.000
61.49000 130.000
61.53500 114.000
61.58000 122.000
61.62500 118.000
61.67000 123.000
61.71500 135.000
61.76000 133.000
61.80500 124.000
61.85000 111.000
61.89500 134.000
61.94000 118.000
61.98500 135.000