File: ISoD/xrd_data/HSC005IIIcombined_ranges_combined.xy
2.0 1098.0
2.045 1124.0
2.09 1079.0
2.135 1032.0
2.18 950.0
2.225 916.0
2.27 811.0
2.315 821.0
2.36 776.0
2.405 801.0
2.45 749.0
2.495 721.0
2.54 688.0
2.585 685.0
2.63 678.0
2.675 641.0
2.72 664.0
2.765 623.0
2.81 618.0
2.855 621.0
2.9 677.0
2.945 592.0
2.99 606.0
3.035 607.0
3.08 558.0
3.125 555.0
3.17 563.0
3.215 575.0
3.26 570.0
3.305 573.0
3.35 567.0
3.395 524.0
3.44 541.0
3.485 539.0
3.53 514.0
3.575 569.0
3.62 512.0
3.665 539.0
3.71 572.0
3.755 520.0
3.8 510.0
3.845 557.0
3.89 526.0
3.935 529.0
3.98 539.0
4.025 560.0
4.07 477.0
4.115 520.0
4.16 510.0
4.205 516.0
4.25 520.0
4.295 535.0
4.34 554.0
4.385 541.0
4.43 560.0
4.475 545.0
4.52 503.0
4.565 546.0
4.61 545.0
4.655 538.0
4.7 548.0
4.745 566.0
4.79 545.0
4.835 508.0
4.88 558.0
4.925 479.0
4.97 555.0
5.015 514.0
5.06 508.0
5.105 507.0
5.15 571.0
5.195 502.0
5.24 536.0
5.285 560.0
5.33 493.0
5.375 567.0
5.42 509.0
5.465 540.0
5.51 547.0
5.555 527.0
5.6 547.0
5.645 539.0
5.69 527.0
5.735 521.0
5.78 561.0
5.825 514.0
5.87 556.0
5.915 548.0
5.96 571.0
6.005 563.0
6.05 537.0
6.095 500.0
6.14 509.0
6.185 514.0
6.23 518.0
6.275 504.0
6.32 530.0
6.365 538.0
6.41 529.0
6.455 536.0
6.5 560.0
6.545 505.0
6.59 532.0
6.635 503.0
6.68 496.0
6.725 577.0
6.77 500.0
6.815 490.0
6.86 515.0
6.905 524.0
6.95 522.0
6.995 526.0
7.04 494.0
7.085 575.0
7.13 460.0
7.175 494.0
7.22 491.0
7.265 529.0
7.31 520.0
7.355 495.0
7.4 502.0
7.445 470.0
7.49 524.0
7.535 496.0
7.58 533.0
7.625 525.0
7.67 555.0
7.715 501.0
7.76 539.0
7.805 512.0
7.85 524.0
7.895 533.0
7.94 505.0
7.985 532.0
8.03 511.0
8.075 509.0
8.12 492.0
8.165 543.0
8.21 557.0
8.255 503.0
8.3 493.0
8.345 541.0
8.39 514.0
8.435 522.0
8.48 513.0
8.525 460.0
8.57 506.0
8.615 490.0
8.66 509.0
8.705 501.0
8.75 496.0
8.795 500.0
8.84 502.0
8.885 530.0
8.93 493.0
8.975 504.0
9.02 476.0
9.065 501.0
9.11 500.0
9.155 516.0
9.2 527.0
9.245 556.0
9.29 502.0
9.335 516.0
9.38 502.0
9.425 509.0
9.47 500.0
9.515 480.0
9.56 477.0
9.605 528.0
9.65 512.0
9.695 529.0
9.74 513.0
9.785 501.0
9.83 516.0
9.875 511.0
9.92 525.0
9.965 506.0
10.01 505.0
10.055 490.0
10.1 515.0
10.145 479.0
10.19 539.0
10.235 527.0
10.28 470.0
10.325 579.0
10.37 532.0
10.415 478.0
10.46 514.0
10.505 491.0
10.55 493.0
10.595 491.0
10.64 515.0
10.685 504.0
10.73 478.0
10.775 525.0
10.82 502.0
10.865 547.0
10.91 519.0
10.955 507.0
11.0 535.0
11.045 516.0
11.09 553.0
11.135 573.0
11.18 528.0
11.225 574.0
11.27 504.0
11.315 497.0
11.36 496.0
11.405 548.0
11.45 506.0
11.495 516.0
11.54 527.0
11.585 543.0
11.63 521.0
11.675 582.0
11.72 565.0
11.765 691.0
11.81 686.0
11.855 988.0
11.9 1433.0
11.945 2486.0
11.99 4278.0
12.035 3435.0
12.08 2862.0
12.125 2053.0
12.17 1027.0
12.215 750.0
12.26 692.0
12.305 710.0
12.35 680.0
12.395 622.0
12.44 689.0
12.485 617.0
12.53 629.0
12.575 630.0
12.62 591.0
12.665 596.0
12.71 584.0
12.755 620.0
12.8 622.0
12.845 574.0
12.89 589.0
12.935 589.0
12.98 569.0
13.025 547.0
13.07 583.0
13.115 609.0
13.16 557.0
13.205 535.0
13.25 534.0
13.295 550.0
13.34 546.0
13.385 575.0
13.43 571.0
13.475 575.0
13.52 547.0
13.565 520.0
13.61 515.0
13.655 530.0
13.7 565.0
13.745 547.0
13.79 548.0
13.835 548.0
13.88 523.0
13.925 547.0
13.97 524.0
14.015 515.0
14.06 494.0
14.105 508.0
14.15 589.0
14.195 526.0
14.24 571.0
14.285 527.0
14.33 573.0
14.375 517.0
14.42 564.0
14.465 521.0
14.51 564.0
14.555 518.0
14.6 594.0
14.645 524.0
14.69 551.0
14.735 538.0
14.78 572.0
14.825 547.0
14.87 507.0
14.915 577.0
14.96 497.0
15.005 524.0
15.05 525.0
15.095 525.0
15.14 541.0
15.185 564.0
15.23 622.0
15.275 533.0
15.32 547.0
15.365 551.0
15.41 536.0
15.455 591.0
15.5 551.0
15.545 552.0
15.59 531.0
15.635 537.0
15.68 510.0
15.725 607.0
15.77 547.0
15.815 550.0
15.86 593.0
15.905 598.0
15.95 564.0
15.995 568.0
16.04 571.0
16.085 625.0
16.13 530.0
16.175 592.0
16.22 614.0
16.265 544.0
16.31 574.0
16.355 606.0
16.4 630.0
16.445 573.0
16.49 600.0
16.535 575.0
16.58 574.0
16.625 608.0
16.67 578.0
16.715 585.0
16.76 622.0
16.805 580.0
16.85 573.0
16.895 610.0
16.94 649.0
16.985 579.0
17.03 616.0
17.075 595.0
17.12 616.0
17.165 646.0
17.21 587.0
17.255 645.0
17.3 629.0
17.345 665.0
17.39 610.0
17.435 710.0
17.48 648.0
17.525 610.0
17.57 652.0
17.615 662.0
17.66 707.0
17.705 701.0
17.75 742.0
17.795 836.0
17.84 846.0
17.885 949.0
17.93 950.0
17.975 950.0
18.02 974.0
18.065 992.0
18.11 922.0
18.155 833.0
18.2 805.0
18.245 746.0
18.29 794.0
18.335 778.0
18.38 742.0
18.425 692.0
18.47 695.0
18.515 702.0
18.56 659.0
18.605 673.0
18.65 686.0
18.695 640.0
18.74 668.0
18.785 671.0
18.83 645.0
18.875 716.0
18.92 694.0
18.965 670.0
19.01 678.0
19.055 618.0
19.1 654.0
19.145 637.0
19.19 659.0
19.235 650.0
19.28 692.0
19.325 609.0
19.37 639.0
19.415 642.0
19.46 663.0
19.505 726.0
19.55 698.0
19.595 663.0
19.64 663.0
19.685 646.0
19.73 682.0
19.775 678.0
19.82 688.0
19.865 669.0
19.91 730.0
19.955 714.0
20.0 692.0
20.045 722.0
20.09 732.0
20.135 706.0
20.18 677.0
20.225 688.0
20.27 692.0
20.315 716.0
20.36 715.0
20.405 746.0
20.45 751.0
20.495 735.0
20.54 776.0
20.585 819.0
20.63 770.0
20.675 882.0
20.72 1078.0
20.765 1417.0
20.81 1546.0
20.855 1524.0
20.9 1424.0
20.945 1241.0
20.99 1107.0
21.035 950.0
21.08 870.0
21.125 864.0
21.17 874.0
21.215 788.0
21.26 758.0
21.305 779.0
21.35 729.0
21.395 751.0
21.44 784.0
21.485 772.0
21.53 788.0
21.575 793.0
21.62 768.0
21.665 779.0
21.71 800.0
21.755 776.0
21.8 781.0
21.845 815.0
21.89 827.0
21.935 778.0
21.98 808.0
22.025 774.0
22.07 745.0
22.115 774.0
22.16 757.0
22.205 794.0
22.25 783.0
22.295 822.0
22.34 859.0
22.385 803.0
22.43 728.0
22.475 862.0
22.52 779.0
22.565 860.0
22.61 767.0
22.655 804.0
22.7 821.0
22.745 850.0
22.79 808.0
22.835 798.0
22.88 814.0
22.925 789.0
22.97 794.0
23.015 863.0
23.06 819.0
23.105 839.0
23.15 818.0
23.195 788.0
23.24 826.0
23.285 877.0
23.33 770.0
23.375 839.0
23.42 819.0
23.465 883.0
23.51 829.0
23.555 866.0
23.6 860.0
23.645 788.0
23.69 863.0
23.735 844.0
23.78 782.0
23.825 872.0
23.87 928.0
23.915 908.0
23.96 840.0
24.005 895.0
24.05 897.0
24.095 918.0
24.14 1097.0
24.185 1119.0
24.23 1098.0
24.275 1209.0
24.32 1157.0
24.365 1045.0
24.41 991.0
24.455 975.0
24.5 913.0
24.545 1017.0
24.59 993.0
24.635 1090.0
24.68 1175.0
24.725 1211.0
24.77 1291.0
24.815 1407.0
24.86 1353.0
24.905 1435.0
24.95 1517.0
24.995 1373.0
25.04 1365.0
25.085 1227.0
25.13 1215.0
25.175 1113.0
25.22 1027.0
25.265 1047.0
25.31 960.0
25.355 986.0
25.4 953.0
25.445 946.0
25.49 992.0
25.535 918.0
25.58 910.0
25.625 905.0
25.67 926.0
25.715 893.0
25.76 907.0
25.805 954.0
25.85 884.0
25.895 946.0
25.94 926.0
25.985 986.0
26.03 1031.0
26.075 960.0
26.12 964.0
26.165 986.0
26.21 1004.0
26.255 971.0
26.3 1031.0
26.345 994.0
26.39 1102.0
26.435 1037.0
26.48 1050.0
26.525 1143.0
26.57 1186.0
26.615 1257.0
26.66 1262.0
26.705 1362.0
26.75 1434.0
26.795 1552.0
26.84 1677.0
26.885 2041.0
26.93 2218.0
26.975 2577.0
27.02 2723.0
27.065 2686.0
27.11 2584.0
27.155 2206.0
27.2 2104.0
27.245 2045.0
27.29 1901.0
27.335 1962.0
27.38 1945.0
27.425 1985.0
27.47 2146.0
27.515 2271.0
27.56 2455.0
27.605 2599.0
27.65 2919.0
27.695 3024.0
27.74 2953.0
27.785 2800.0
27.83 2415.0
27.875 2255.0
27.92 1979.0
27.965 1723.0
28.01 1673.0
28.055 1546.0
28.1 1447.0
28.145 1319.0
28.19 1184.0
28.235 1148.0
28.28 1169.0
28.325 1094.0
28.37 1042.0
28.415 1028.0
28.46 993.0
28.505 980.0
28.55 987.0
28.595 970.0
28.64 908.0
28.685 944.0
28.73 937.0
28.775 935.0
28.82 848.0
28.865 860.0
28.91 959.0
28.955 941.0
29.0 938.0
29.045 892.0
29.09 911.0
29.135 924.0
29.18 928.0
29.225 989.0
29.27 974.0
29.315 1015.0
29.36 1029.0
29.405 1005.0
29.45 1148.0
29.495 1176.0
29.54 1149.0
29.585 1186.0
29.63 1196.0
29.675 1235.0
29.72 1174.0
29.765 1211.0
29.81 1085.0
29.855 1040.0
29.9 1013.0
29.945 898.0
29.99 851.0
30.035 854.0
30.08 792.0
30.125 819.0
30.17 719.0
30.215 756.0
30.26 668.0
30.305 705.0
30.35 680.0
30.395 660.0
30.44 744.0
30.485 691.0
30.53 711.0
30.575 649.0
30.62 650.0
30.665 636.0
30.71 629.0
30.755 633.0
30.8 629.0
30.845 646.0
30.89 652.0
30.935 618.0
30.98 657.0
31.025 605.0
31.07 635.0
31.115 646.0
31.16 679.0
31.205 621.0
31.25 637.0
31.295 617.0
31.34 639.0
31.385 612.0
31.43 629.0
31.475 600.0
31.52 592.0
31.565 620.0
31.61 612.0
31.655 603.0
31.7 569.0
31.745 621.0
31.79 605.0
31.835 625.0
31.88 640.0
31.925 754.0
31.97 928.0
32.015 986.0
32.06 940.0
32.105 966.0
32.15 992.0
32.195 1050.0
32.24 1023.0
32.285 943.0
32.33 940.0
32.375 829.0
32.42 660.0
32.465 643.0
32.51 615.0
32.555 613.0
32.6 629.0
32.645 575.0
32.69 585.0
32.735 550.0
32.78 550.0
32.825 565.0
32.87 560.0
32.915 592.0
32.96 549.0
33.005 566.0
33.05 572.0
33.095 544.0
33.14 531.0
33.185 551.0
33.23 556.0
33.275 593.0
33.32 515.0
33.365 494.0
33.41 527.0
33.455 504.0
33.5 530.0
33.545 531.0
33.59 503.0
33.635 504.0
33.68 527.0
33.725 499.0
33.77 553.0
33.815 524.0
33.86 507.0
33.905 471.0
33.95 514.0
33.995 512.0
34.04 494.0
34.085 471.0
34.13 512.0
34.175 500.0
34.22 507.0
34.265 505.0
34.31 522.0
34.355 560.0
34.4 565.0
34.445 540.0
34.49 542.0
34.535 519.0
34.58 514.0
34.625 553.0
34.67 561.0
34.715 527.0
34.76 583.0
34.805 553.0
34.85 548.0
34.895 619.0
34.94 573.0
34.985 635.0
35.03 632.0
35.075 572.0
35.12 573.0
35.165 600.0
35.21 576.0
35.255 529.0
35.3 505.0
35.345 505.0
35.39 474.0
35.435 482.0
35.48 451.0
35.525 430.0
35.57 462.0
35.615 419.0
35.66 472.0
35.705 450.0
35.75 460.0
35.795 438.0
35.84 475.0
35.885 469.0
35.93 444.0
35.975 465.0
36.02 432.0
36.065 439.0
36.11 465.0
36.155 411.0
36.2 467.0
36.245 416.0
36.29 461.0
36.335 417.0
36.38 446.0
36.425 427.0
36.47 454.0
36.515 502.0
36.56 449.0
36.605 419.0
36.65 455.0
36.695 430.0
36.74 437.0
36.785 458.0
36.83 408.0
36.875 419.0
36.92 415.0
36.965 437.0
37.01 419.0
37.055 405.0
37.1 394.0
37.145 436.0
37.19 395.0
37.235 376.0
37.28 385.0
37.325 409.0
37.37 387.0
37.415 361.0
37.46 362.0
37.505 404.0
37.55 424.0
37.595 415.0
37.64 370.0
37.685 365.0
37.73 415.0
37.775 423.0
37.82 361.0
37.865 411.0
37.91 362.0
37.955 366.0
38.0 389.0
38.045 371.0
38.09 418.0
38.135 373.0
38.18 398.0
38.225 415.0
38.27 386.0
38.315 404.0
38.36 379.0
38.405 385.0
38.45 399.0
38.495 415.0
38.54 356.0
38.585 396.0
38.63 350.0
38.675 387.0
38.72 400.0
38.765 363.0
38.81 342.0
38.855 387.0
38.9 376.0
38.945 418.0
38.99 394.0
39.035 431.0
39.08 411.0
39.125 379.0
39.17 363.0
39.215 367.0
39.26 377.0
39.305 418.0
39.35 423.0
39.395 418.0
39.44 440.0
39.485 417.0
39.53 430.0
39.575 427.0
39.62 454.0
39.665 454.0
39.71 478.0
39.755 541.0
39.8 484.0
39.845 464.0
39.89 454.0
39.935 419.0
39.98 419.0
40.025 439.0
40.07 390.0
40.115 399.0
40.16 388.0
40.205 363.0
40.25 400.0
40.295 390.0
40.34 356.0
40.385 377.0
40.43 377.0
40.475 331.0
40.52 371.0
40.565 348.0
40.61 383.0
40.655 343.0
40.7 373.0
40.745 386.0
40.79 341.0
40.835 356.0
40.88 389.0
40.925 357.0
40.97 366.0
41.015 356.0
41.06 372.0
41.105 373.0
41.15 384.0
41.195 375.0
41.24 379.0
41.285 392.0
41.33 376.0
41.375 388.0
41.42 385.0
41.465 375.0
41.51 403.0
41.555 373.0
41.6 358.0
41.645 405.0
41.69 381.0
41.735 352.0
41.78 380.0
41.825 398.0
41.87 361.0
41.915 365.0
41.96 384.0
42.005 390.0
42.05 390.0
42.095 389.0
42.14 417.0
42.185 419.0
42.23 516.0
42.275 519.0
42.32 539.0
42.365 435.0
42.41 463.0
42.455 501.0
42.5 430.0
42.545 494.0
42.59 546.0
42.635 545.0
42.68 556.0
42.725 474.0
42.77 466.0
42.815 430.0
42.86 399.0
42.905 430.0
42.95 430.0
42.995 414.0
43.04 418.0
43.085 436.0
43.13 418.0
43.175 387.0
43.22 391.0
43.265 391.0
43.31 370.0
43.355 401.0
43.4 385.0
43.445 366.0
43.49 387.0
43.535 369.0
43.58 399.0
43.625 387.0
43.67 419.0
43.715 389.0
43.76 359.0
43.805 407.0
43.85 393.0
43.895 448.0
43.94 402.0
43.985 423.0
44.03 409.0
44.075 430.0
44.12 465.0
44.165 474.0
44.21 472.0
44.255 533.0
44.3 594.0
44.345 666.0
44.39 663.0
44.435 614.0
44.48 589.0
44.525 602.0
44.57 640.0
44.615 654.0
44.66 654.0
44.705 694.0
44.75 637.0
44.795 659.0
44.84 719.0
44.885 684.0
44.93 676.0
44.975 671.0
45.02 659.0
45.065 570.0
45.11 546.0
45.155 499.0
45.2 514.0
45.245 472.0
45.29 445.0
45.335 422.0
45.38 402.0
45.425 396.0
45.47 377.0
45.515 386.0
45.56 377.0
45.605 364.0
45.65 382.0
45.695 356.0
45.74 376.0
45.785 350.0
45.83 376.0
45.875 368.0
45.92 352.0
45.965 372.0
46.01 402.0
46.055 376.0
46.1 368.0
46.145 376.0
46.19 375.0
46.235 383.0
46.28 366.0
46.325 401.0
46.37 417.0
46.415 404.0
46.46 419.0
46.505 395.0
46.55 374.0
46.595 379.0
46.64 403.0
46.685 416.0
46.73 402.0
46.775 399.0
46.82 368.0
46.865 377.0
46.91 332.0
46.955 404.0
47.0 356.0
47.045 345.0
47.09 346.0
47.135 364.0
47.18 309.0
47.225 345.0
47.27 326.0
47.315 338.0
47.36 325.0
47.405 343.0
47.45 317.0
47.495 348.0
47.54 339.0
47.585 349.0
47.63 344.0
47.675 335.0
47.72 341.0
47.765 306.0
47.81 301.0
47.855 284.0
47.9 308.0
47.945 317.0
47.99 319.0
48.035 322.0
48.08 293.0
48.125 334.0
48.17 313.0
48.215 295.0
48.26 300.0
48.305 297.0
48.35 324.0
48.395 314.0
48.44 312.0
48.485 285.0
48.53 275.0
48.575 324.0
48.62 307.0
48.665 328.0
48.71 331.0
48.755 349.0
48.8 312.0
48.845 308.0
48.89 314.0
48.935 307.0
48.98 301.0
49.025 298.0
49.07 313.0
49.115 296.0
49.16 319.0
49.205 316.0
49.25 319.0
49.295 322.0
49.34 322.0
49.385 349.0
49.43 313.0
49.475 335.0
49.52 313.0
49.565 273.0
49.61 308.0
49.655 352.0
49.7 298.0
49.745 332.0
49.79 294.0
49.835 298.0
49.88 304.0
49.925 304.0
49.97 329.0
50.015 326.0
50.06 350.0
50.105 326.0
50.15 293.0
50.195 330.0
50.24 350.0
50.285 280.0
50.33 326.0
50.375 331.0
50.42 336.0
50.465 328.0
50.51 314.0
50.555 356.0
50.6 334.0
50.645 306.0
50.69 326.0
50.735 310.0
50.78 289.0
50.825 350.0
50.87 348.0
50.915 309.0
50.96 318.0
51.005 338.0
51.05 340.0
51.095 342.0
51.14 323.0
51.185 296.0
51.23 321.0
51.275 303.0
51.32 322.0
51.365 332.0
51.41 294.0
51.455 329.0
51.5 288.0
51.545 315.0
51.59 305.0
51.635 293.0
51.68 279.0
51.725 296.0
51.77 307.0
51.815 311.0
51.86 289.0
51.905 317.0
51.95 293.0
51.995 296.0
52.04 294.0
52.085 281.0
52.13 264.0
52.175 314.0
52.22 350.0
52.265 291.0
52.31 317.0
52.355 328.0
52.4 281.0
52.445 300.0
52.49 337.0
52.535 281.0
52.58 284.0
52.625 334.0
52.67 295.0
52.715 313.0
52.76 310.0
52.805 311.0
52.85 279.0
52.895 316.0
52.94 297.0
52.985 316.0
53.03 302.0
53.075 296.0
53.12 327.0
53.165 303.0
53.21 284.0
53.255 302.0
53.3 261.0
53.345 288.0
53.39 308.0
53.435 291.0
53.48 289.0
53.525 274.0
53.57 272.0
53.615 285.0
53.66 295.0
53.705 274.0
53.75 294.0
53.795 278.0
53.84 319.0
53.885 293.0
53.93 305.0
53.975 324.0
54.02 323.0
54.065 322.0
54.11 308.0
54.155 317.0
54.2 338.0
54.245 339.0
54.29 327.0
54.335 304.0
54.38 297.0
54.425 315.0
54.47 295.0
54.515 325.0
54.56 308.0
54.605 325.0
54.65 304.0
54.695 307.0
54.74 302.0
54.785 305.0
54.83 308.0
54.875 308.0
54.92 301.0
54.965 268.0
55.01 290.0
55.055 300.0
55.1 280.0
55.145 314.0
55.19 292.0
55.235 332.0
55.28 311.0
55.325 273.0
55.37 288.0
55.415 297.0
55.46 309.0
55.505 290.0
55.55 326.0
55.595 335.0
55.64 359.0
55.685 333.0
55.73 372.0
55.775 351.0
55.82 372.0
55.865 345.0
55.91 378.0
55.955 368.0
56.0 393.0
56.045 422.0
56.09 419.0
56.135 401.0
56.18 419.0
56.225 403.0
56.27 406.0
56.315 441.0
56.36 389.0
56.405 373.0
56.45 401.0
56.495 403.0
56.54 359.0
56.585 386.0
56.63 339.0
56.675 354.0
56.72 385.0
56.765 330.0
56.81 345.0
56.855 338.0
56.9 343.0
56.945 344.0
56.99 350.0
57.035 349.0
57.08 333.0
57.125 347.0
57.17 336.0
57.215 375.0
57.26 309.0
57.305 359.0
57.35 345.0
57.395 341.0
57.44 337.0
57.485 352.0
57.53 311.0
57.575 332.0
57.62 326.0
57.665 308.0
57.71 323.0
57.755 321.0
57.8 305.0
57.845 292.0
57.89 304.0
57.935 309.0
57.98 305.0
58.025 301.0
58.07 269.0
58.115 323.0
58.16 282.0
58.205 309.0
58.25 284.0
58.295 259.0
58.34 260.0
58.385 288.0
58.43 292.0
58.475 293.0
58.52 242.0
58.565 295.0
58.61 294.0
58.655 286.0
58.7 287.0
58.745 270.0
58.79 264.0
58.835 280.0
58.88 289.0
58.925 291.0
58.97 305.0
59.015 296.0
59.06 273.0
59.105 296.0
59.15 287.0
59.195 267.0
59.24 276.0
59.285 293.0
59.33 312.0
59.375 256.0
59.42 289.0
59.465 280.0
59.51 276.0
59.555 250.0
59.6 306.0
59.645 261.0
59.69 279.0
59.735 286.0
59.78 241.0
59.825 286.0
59.87 281.0
59.915 288.0
59.96 284.0
60.005 279.0
60.05 227.0
60.095 260.0
60.14 282.0
60.185 288.0
60.23 284.0
60.275 283.0
60.32 247.0
60.365 296.0
60.41 271.0
60.455 270.0
60.5 281.0
60.545 282.0
60.59 281.0
60.635 312.0
60.68 294.0
60.725 275.0
60.77 258.0
60.815 252.0
60.86 280.0
60.905 260.0
60.95 272.0
60.995 242.0
61.04 231.0
61.085 324.0
61.13 277.0
61.175 263.0
61.22 244.0
61.265 307.0
61.31 317.0
61.355 305.0
61.4 252.0
61.445 272.0
61.49 288.0
61.535 264.0
61.58 272.0
61.625 264.0
61.67 282.0
61.715 293.0
61.76 277.0
61.805 259.0
61.85 285.0
61.895 274.0
61.94 301.0
61.985 253.0