File: ISoD/xrd_data/HSC091.xy
2.00000 1.000
2.04500 3.000
2.09000 0.000
2.13500 0.000
2.18000 1.000
2.22500 1.000
2.27000 1.000
2.31500 0.000
2.36000 1.000
2.40500 1.000
2.45000 1.000
2.49500 3.000
2.54000 1.000
2.58500 2.000
2.63000 1.000
2.67500 0.000
2.72000 0.000
2.76500 1.000
2.81000 1.000
2.85500 1.000
2.90000 2.000
2.94500 0.000
2.99000 0.000
3.03500 0.000
3.08000 0.000
3.12500 8.000
3.17000 14.000
3.21500 18.000
3.26000 27.000
3.30500 32.000
3.35000 37.000
3.39500 29.000
3.44000 33.000
3.48500 29.000
3.53000 31.000
3.57500 34.000
3.62000 34.000
3.66500 38.000
3.71000 34.000
3.75500 44.000
3.80000 39.000
3.84500 35.000
3.89000 35.000
3.93500 34.000
3.98000 31.000
4.02500 43.000
4.07000 32.000
4.11500 31.000
4.16000 42.000
4.20500 35.000
4.25000 44.000
4.29500 38.000
4.34000 35.000
4.38500 41.000
4.43000 35.000
4.47500 42.000
4.52000 45.000
4.56500 41.000
4.61000 37.000
4.65500 38.000
4.70000 40.000
4.74500 47.000
4.79000 41.000
4.83500 40.000
4.88000 35.000
4.92500 38.000
4.97000 57.000
5.01500 51.000
5.06000 44.000
5.10500 45.000
5.15000 50.000
5.19500 43.000
5.24000 41.000
5.28500 42.000
5.33000 37.000
5.37500 46.000
5.42000 45.000
5.46500 45.000
5.51000 46.000
5.55500 35.000
5.60000 44.000
5.64500 41.000
5.69000 44.000
5.73500 40.000
5.78000 43.000
5.82500 48.000
5.87000 46.000
5.91500 45.000
5.96000 41.000
6.00500 50.000
6.05000 45.000
6.09500 45.000
6.14000 44.000
6.18500 43.000
6.23000 49.000
6.27500 51.000
6.32000 49.000
6.36500 41.000
6.41000 42.000
6.45500 58.000
6.50000 45.000
6.54500 45.000
6.59000 58.000
6.63500 48.000
6.68000 41.000
6.72500 52.000
6.77000 45.000
6.81500 38.000
6.86000 47.000
6.90500 41.000
6.95000 38.000
6.99500 50.000
7.04000 51.000
7.08500 45.000
7.13000 53.000
7.17500 40.000
7.22000 38.000
7.26500 50.000
7.31000 46.000
7.35500 54.000
7.40000 45.000
7.44500 47.000
7.49000 54.000
7.53500 50.000
7.58000 54.000
7.62500 58.000
7.67000 53.000
7.71500 58.000
7.76000 55.000
7.80500 53.000
7.85000 56.000
7.89500 54.000
7.94000 58.000
7.98500 49.000
8.03000 48.000
8.07500 63.000
8.12000 51.000
8.16500 65.000
8.21000 71.000
8.25500 58.000
8.30000 53.000
8.34500 44.000
8.39000 63.000
8.43500 46.000
8.48000 55.000
8.52500 56.000
8.57000 59.000
8.61500 51.000
8.66000 46.000
8.70500 50.000
8.75000 53.000
8.79500 54.000
8.84000 57.000
8.88500 49.000
8.93000 54.000
8.97500 45.000
9.02000 61.000
9.06500 55.000
9.11000 57.000
9.15500 59.000
9.20000 54.000
9.24500 53.000
9.29000 47.000
9.33500 60.000
9.38000 60.000
9.42500 52.000
9.47000 57.000
9.51500 63.000
9.56000 68.000
9.60500 62.000
9.65000 55.000
9.69500 49.000
9.74000 51.000
9.78500 66.000
9.83000 52.000
9.87500 61.000
9.92000 50.000
9.96500 54.000
10.01000 56.000
10.05500 52.000
10.10000 52.000
10.14500 59.000
10.19000 51.000
10.23500 65.000
10.28000 49.000
10.32500 58.000
10.37000 57.000
10.41500 39.000
10.46000 49.000
10.50500 62.000
10.55000 54.000
10.59500 60.000
10.64000 52.000
10.68500 46.000
10.73000 57.000
10.77500 52.000
10.82000 48.000
10.86500 60.000
10.91000 59.000
10.95500 49.000
11.00000 47.000
11.04500 61.000
11.09000 51.000
11.13500 55.000
11.18000 60.000
11.22500 60.000
11.27000 62.000
11.31500 67.000
11.36000 88.000
11.40500 140.000
11.45000 249.000
11.49500 138.000
11.54000 54.000
11.58500 66.000
11.63000 60.000
11.67500 55.000
11.72000 49.000
11.76500 66.000
11.81000 54.000
11.85500 62.000
11.90000 50.000
11.94500 49.000
11.99000 54.000
12.03500 59.000
12.08000 53.000
12.12500 61.000
12.17000 56.000
12.21500 63.000
12.26000 69.000
12.30500 59.000
12.35000 56.000
12.39500 62.000
12.44000 60.000
12.48500 67.000
12.53000 56.000
12.57500 53.000
12.62000 71.000
12.66500 53.000
12.71000 54.000
12.75500 60.000
12.80000 66.000
12.84500 57.000
12.89000 62.000
12.93500 52.000
12.98000 52.000
13.02500 58.000
13.07000 50.000
13.11500 59.000
13.16000 53.000
13.20500 59.000
13.25000 69.000
13.29500 65.000
13.34000 62.000
13.38500 59.000
13.43000 69.000
13.47500 61.000
13.52000 63.000
13.56500 60.000
13.61000 58.000
13.65500 70.000
13.70000 65.000
13.74500 67.000
13.79000 67.000
13.83500 59.000
13.88000 61.000
13.92500 66.000
13.97000 49.000
14.01500 74.000
14.06000 62.000
14.10500 73.000
14.15000 73.000
14.19500 66.000
14.24000 62.000
14.28500 73.000
14.33000 56.000
14.37500 70.000
14.42000 72.000
14.46500 70.000
14.51000 73.000
14.55500 57.000
14.60000 64.000
14.64500 67.000
14.69000 61.000
14.73500 60.000
14.78000 73.000
14.82500 59.000
14.87000 70.000
14.91500 62.000
14.96000 67.000
15.00500 64.000
15.05000 70.000
15.09500 57.000
15.14000 70.000
15.18500 68.000
15.23000 82.000
15.27500 149.000
15.32000 295.000
15.36500 586.000
15.41000 251.000
15.45500 123.000
15.50000 176.000
15.54500 231.000
15.59000 94.000
15.63500 78.000
15.68000 54.000
15.72500 56.000
15.77000 63.000
15.81500 53.000
15.86000 55.000
15.90500 62.000
15.95000 59.000
15.99500 67.000
16.04000 55.000
16.08500 67.000
16.13000 72.000
16.17500 55.000
16.22000 69.000
16.26500 66.000
16.31000 60.000
16.35500 65.000
16.40000 75.000
16.44500 64.000
16.49000 62.000
16.53500 47.000
16.58000 80.000
16.62500 64.000
16.67000 56.000
16.71500 72.000
16.76000 69.000
16.80500 62.000
16.85000 70.000
16.89500 69.000
16.94000 60.000
16.98500 60.000
17.03000 66.000
17.07500 65.000
17.12000 68.000
17.16500 77.000
17.21000 66.000
17.25500 58.000
17.30000 66.000
17.34500 63.000
17.39000 74.000
17.43500 53.000
17.48000 62.000
17.52500 63.000
17.57000 70.000
17.61500 67.000
17.66000 61.000
17.70500 63.000
17.75000 70.000
17.79500 70.000
17.84000 70.000
17.88500 62.000
17.93000 73.000
17.97500 72.000
18.02000 61.000
18.06500 70.000
18.11000 62.000
18.15500 62.000
18.20000 74.000
18.24500 58.000
18.29000 62.000
18.33500 66.000
18.38000 105.000
18.42500 114.000
18.47000 79.000
18.51500 73.000
18.56000 61.000
18.60500 63.000
18.65000 73.000
18.69500 54.000
18.74000 65.000
18.78500 80.000
18.83000 70.000
18.87500 61.000
18.92000 62.000
18.96500 57.000
19.01000 78.000
19.05500 66.000
19.10000 77.000
19.14500 47.000
19.19000 60.000
19.23500 65.000
19.28000 67.000
19.32500 65.000
19.37000 59.000
19.41500 63.000
19.46000 65.000
19.50500 56.000
19.55000 69.000
19.59500 58.000
19.64000 66.000
19.68500 71.000
19.73000 66.000
19.77500 65.000
19.82000 83.000
19.86500 54.000
19.91000 64.000
19.95500 78.000
20.00000 78.000
20.04500 78.000
20.09000 80.000
20.13500 101.000
20.18000 94.000
20.22500 106.000
20.27000 89.000
20.31500 101.000
20.36000 88.000
20.40500 83.000
20.45000 83.000
20.49500 85.000
20.54000 81.000
20.58500 89.000
20.63000 80.000
20.67500 70.000
20.72000 69.000
20.76500 78.000
20.81000 68.000
20.85500 69.000
20.90000 78.000
20.94500 66.000
20.99000 86.000
21.03500 84.000
21.08000 82.000
21.12500 131.000
21.17000 139.000
21.21500 101.000
21.26000 74.000
21.30500 86.000
21.35000 87.000
21.39500 73.000
21.44000 80.000
21.48500 67.000
21.53000 95.000
21.57500 87.000
21.62000 90.000
21.66500 88.000
21.71000 94.000
21.75500 125.000
21.80000 225.000
21.84500 414.000
21.89000 379.000
21.93500 136.000
21.98000 82.000
22.02500 79.000
22.07000 74.000
22.11500 92.000
22.16000 85.000
22.20500 88.000
22.25000 86.000
22.29500 83.000
22.34000 85.000
22.38500 84.000
22.43000 96.000
22.47500 94.000
22.52000 116.000
22.56500 178.000
22.61000 313.000
22.65500 501.000
22.70000 359.000
22.74500 149.000
22.79000 113.000
22.83500 136.000
22.88000 149.000
22.92500 351.000
22.97000 917.000
23.01500 2279.000
23.06000 3281.000
23.10500 968.000
23.15000 218.000
23.19500 118.000
23.24000 107.000
23.28500 108.000
23.33000 108.000
23.37500 99.000
23.42000 110.000
23.46500 117.000
23.51000 113.000
23.55500 118.000
23.60000 131.000
23.64500 150.000
23.69000 135.000
23.73500 142.000
23.78000 126.000
23.82500 127.000
23.87000 117.000
23.91500 125.000
23.96000 106.000
24.00500 123.000
24.05000 131.000
24.09500 139.000
24.14000 129.000
24.18500 141.000
24.23000 136.000
24.27500 131.000
24.32000 148.000
24.36500 124.000
24.41000 118.000
24.45500 114.000
24.50000 108.000
24.54500 115.000
24.59000 100.000
24.63500 112.000
24.68000 92.000
24.72500 111.000
24.77000 117.000
24.81500 140.000
24.86000 239.000
24.90500 356.000
24.95000 244.000
24.99500 120.000
25.04000 95.000
25.08500 86.000
25.13000 96.000
25.17500 90.000
25.22000 93.000
25.26500 101.000
25.31000 99.000
25.35500 88.000
25.40000 101.000
25.44500 109.000
25.49000 108.000
25.53500 116.000
25.58000 126.000
25.62500 134.000
25.67000 170.000
25.71500 236.000
25.76000 577.000
25.80500 1535.000
25.85000 1186.000
25.89500 242.000
25.94000 126.000
25.98500 117.000
26.03000 137.000
26.07500 95.000
26.12000 104.000
26.16500 124.000
26.21000 114.000
26.25500 136.000
26.30000 202.000
26.34500 167.000
26.39000 119.000
26.43500 120.000
26.48000 115.000
26.52500 131.000
26.57000 188.000
26.61500 296.000
26.66000 637.000
26.70500 795.000
26.75000 313.000
26.79500 151.000
26.84000 121.000
26.88500 119.000
26.93000 120.000
26.97500 140.000
27.02000 137.000
27.06500 134.000
27.11000 146.000
27.15500 147.000
27.20000 167.000
27.24500 150.000
27.29000 172.000
27.33500 162.000
27.38000 182.000
27.42500 179.000
27.47000 194.000
27.51500 245.000
27.56000 314.000
27.60500 533.000
27.65000 1107.000
27.69500 1593.000
27.74000 1281.000
27.78500 558.000
27.83000 282.000
27.87500 221.000
27.92000 204.000
27.96500 184.000
28.01000 188.000
28.05500 168.000
28.10000 139.000
28.14500 169.000
28.19000 158.000
28.23500 122.000
28.28000 112.000
28.32500 118.000
28.37000 118.000
28.41500 113.000
28.46000 112.000
28.50500 137.000
28.55000 222.000
28.59500 465.000
28.64000 803.000
28.68500 513.000
28.73000 187.000
28.77500 134.000
28.82000 167.000
28.86500 351.000
28.91000 608.000
28.95500 453.000
29.00000 171.000
29.04500 135.000
29.09000 132.000
29.13500 139.000
29.18000 117.000
29.22500 125.000
29.27000 118.000
29.31500 110.000
29.36000 115.000
29.40500 102.000
29.45000 113.000
29.49500 95.000
29.54000 109.000
29.58500 114.000
29.63000 100.000
29.67500 102.000
29.72000 105.000
29.76500 91.000
29.81000 99.000
29.85500 106.000
29.90000 90.000
29.94500 88.000
29.99000 95.000
30.03500 96.000
30.08000 97.000
30.12500 102.000
30.17000 95.000
30.21500 94.000
30.26000 97.000
30.30500 89.000
30.35000 101.000
30.39500 94.000
30.44000 90.000
30.48500 97.000
30.53000 88.000
30.57500 104.000
30.62000 93.000
30.66500 103.000
30.71000 102.000
30.75500 77.000
30.80000 101.000
30.84500 96.000
30.89000 99.000
30.93500 101.000
30.98000 89.000
31.02500 78.000
31.07000 109.000
31.11500 88.000
31.16000 75.000
31.20500 89.000
31.25000 128.000
31.29500 229.000
31.34000 429.000
31.38500 556.000
31.43000 276.000
31.47500 114.000
31.52000 99.000
31.56500 93.000
31.61000 77.000
31.65500 75.000
31.70000 79.000
31.74500 73.000
31.79000 75.000
31.83500 77.000
31.88000 70.000
31.92500 86.000
31.97000 95.000
32.01500 63.000
32.06000 81.000
32.10500 77.000
32.15000 82.000
32.19500 72.000
32.24000 82.000
32.28500 86.000
32.33000 83.000
32.37500 84.000
32.42000 84.000
32.46500 89.000
32.51000 92.000
32.55500 97.000
32.60000 84.000
32.64500 86.000
32.69000 76.000
32.73500 89.000
32.78000 79.000
32.82500 97.000
32.87000 83.000
32.91500 88.000
32.96000 79.000
33.00500 81.000
33.05000 73.000
33.09500 85.000
33.14000 73.000
33.18500 91.000
33.23000 117.000
33.27500 119.000
33.32000 110.000
33.36500 87.000
33.41000 83.000
33.45500 97.000
33.50000 86.000
33.54500 83.000
33.59000 67.000
33.63500 64.000
33.68000 63.000
33.72500 76.000
33.77000 73.000
33.81500 79.000
33.86000 75.000
33.90500 80.000
33.95000 78.000
33.99500 92.000
34.04000 146.000
34.08500 325.000
34.13000 472.000
34.17500 314.000
34.22000 194.000
34.26500 137.000
34.31000 84.000
34.35500 70.000
34.40000 69.000
34.44500 72.000
34.49000 84.000
34.53500 74.000
34.58000 77.000
34.62500 89.000
34.67000 90.000
34.71500 92.000
34.76000 109.000
34.80500 112.000
34.85000 165.000
34.89500 163.000
34.94000 123.000
34.98500 90.000
35.03000 82.000
35.07500 84.000
35.12000 81.000
35.16500 80.000
35.21000 73.000
35.25500 61.000
35.30000 69.000
35.34500 88.000
35.39000 75.000
35.43500 82.000
35.48000 74.000
35.52500 83.000
35.57000 68.000
35.61500 85.000
35.66000 88.000
35.70500 87.000
35.75000 115.000
35.79500 182.000
35.84000 311.000
35.88500 295.000
35.93000 152.000
35.97500 130.000
36.02000 129.000
36.06500 181.000
36.11000 172.000
36.15500 117.000
36.20000 88.000
36.24500 78.000
36.29000 67.000
36.33500 80.000
36.38000 70.000
36.42500 71.000
36.47000 69.000
36.51500 75.000
36.56000 64.000
36.60500 61.000
36.65000 83.000
36.69500 79.000
36.74000 73.000
36.78500 78.000
36.83000 83.000
36.87500 102.000
36.92000 148.000
36.96500 283.000
37.01000 491.000
37.05500 382.000
37.10000 182.000
37.14500 110.000
37.19000 79.000
37.23500 95.000
37.28000 106.000
37.32500 134.000
37.37000 123.000
37.41500 92.000
37.46000 75.000
37.50500 73.000
37.55000 79.000
37.59500 75.000
37.64000 79.000
37.68500 92.000
37.73000 122.000
37.77500 202.000
37.82000 225.000
37.86500 162.000
37.91000 200.000
37.95500 229.000
38.00000 136.000
38.04500 78.000
38.09000 75.000
38.13500 65.000
38.18000 76.000
38.22500 60.000
38.27000 66.000
38.31500 69.000
38.36000 67.000
38.40500 64.000
38.45000 60.000
38.49500 71.000
38.54000 62.000
38.58500 82.000
38.63000 71.000
38.67500 61.000
38.72000 64.000
38.76500 78.000
38.81000 67.000
38.85500 67.000
38.90000 60.000
38.94500 67.000
38.99000 57.000
39.03500 84.000
39.08000 59.000
39.12500 67.000
39.17000 67.000
39.21500 79.000
39.26000 148.000
39.30500 266.000
39.35000 316.000
39.39500 156.000
39.44000 100.000
39.48500 75.000
39.53000 71.000
39.57500 68.000
39.62000 63.000
39.66500 67.000
39.71000 72.000
39.75500 56.000
39.80000 56.000
39.84500 65.000
39.89000 65.000
39.93500 67.000
39.98000 72.000
40.02500 66.000
40.07000 74.000
40.11500 61.000
40.16000 70.000
40.20500 60.000
40.25000 68.000
40.29500 70.000
40.34000 68.000
40.38500 69.000
40.43000 77.000
40.47500 77.000
40.52000 82.000
40.56500 84.000
40.61000 112.000
40.65500 123.000
40.70000 87.000
40.74500 69.000
40.79000 75.000
40.83500 61.000
40.88000 66.000
40.92500 61.000
40.97000 60.000
41.01500 61.000
41.06000 66.000
41.10500 73.000
41.15000 66.000
41.19500 64.000
41.24000 54.000
41.28500 73.000
41.33000 61.000
41.37500 68.000
41.42000 58.000
41.46500 66.000
41.51000 64.000
41.55500 59.000
41.60000 53.000
41.64500 59.000
41.69000 65.000
41.73500 68.000
41.78000 70.000
41.82500 61.000
41.87000 75.000
41.91500 76.000
41.96000 97.000
42.00500 125.000
42.05000 161.000
42.09500 151.000
42.14000 87.000
42.18500 91.000
42.23000 74.000
42.27500 64.000
42.32000 57.000
42.36500 70.000
42.41000 82.000
42.45500 69.000
42.50000 84.000
42.54500 97.000
42.59000 135.000
42.63500 223.000
42.68000 352.000
42.72500 354.000
42.77000 300.000
42.81500 181.000
42.86000 113.000
42.90500 88.000
42.95000 76.000
42.99500 87.000
43.04000 99.000
43.08500 128.000
43.13000 116.000
43.17500 101.000
43.22000 85.000
43.26500 71.000
43.31000 72.000
43.35500 70.000
43.40000 75.000
43.44500 68.000
43.49000 75.000
43.53500 71.000
43.58000 78.000
43.62500 67.000
43.67000 74.000
43.71500 73.000
43.76000 80.000
43.80500 77.000
43.85000 77.000
43.89500 109.000
43.94000 109.000
43.98500 118.000
44.03000 71.000
44.07500 82.000
44.12000 57.000
44.16500 59.000
44.21000 98.000
44.25500 93.000
44.30000 107.000
44.34500 115.000
44.39000 89.000
44.43500 89.000
44.48000 73.000
44.52500 85.000
44.57000 86.000
44.61500 72.000
44.66000 60.000
44.70500 61.000
44.75000 78.000
44.79500 67.000
44.84000 84.000
44.88500 77.000
44.93000 72.000
44.97500 73.000
45.02000 73.000
45.06500 93.000
45.11000 105.000
45.15500 122.000
45.20000 114.000
45.24500 103.000
45.29000 84.000
45.33500 78.000
45.38000 73.000
45.42500 83.000
45.47000 97.000
45.51500 113.000
45.56000 177.000
45.60500 145.000
45.65000 138.000
45.69500 83.000
45.74000 74.000
45.78500 75.000
45.83000 76.000
45.87500 68.000
45.92000 74.000
45.96500 64.000
46.01000 80.000
46.05500 82.000
46.10000 74.000
46.14500 85.000
46.19000 106.000
46.23500 108.000
46.28000 149.000
46.32500 136.000
46.37000 92.000
46.41500 94.000
46.46000 62.000
46.50500 69.000
46.55000 71.000
46.59500 76.000
46.64000 69.000
46.68500 69.000
46.73000 54.000
46.77500 67.000
46.82000 80.000
46.86500 67.000
46.91000 67.000
46.95500 72.000
47.00000 78.000
47.04500 81.000
47.09000 94.000
47.13500 105.000
47.18000 88.000
47.22500 71.000
47.27000 69.000
47.31500 81.000
47.36000 83.000
47.40500 74.000
47.45000 70.000
47.49500 84.000
47.54000 98.000
47.58500 137.000
47.63000 173.000
47.67500 218.000
47.72000 295.000
47.76500 268.000
47.81000 220.000
47.85500 207.000
47.90000 123.000
47.94500 100.000
47.99000 73.000
48.03500 76.000
48.08000 91.000
48.12500 79.000
48.17000 83.000
48.21500 72.000
48.26000 73.000
48.30500 74.000
48.35000 72.000
48.39500 64.000
48.44000 65.000
48.48500 71.000
48.53000 65.000
48.57500 67.000
48.62000 71.000
48.66500 72.000
48.71000 73.000
48.75500 66.000
48.80000 73.000
48.84500 71.000
48.89000 69.000
48.93500 78.000
48.98000 92.000
49.02500 85.000
49.07000 91.000
49.11500 78.000
49.16000 79.000
49.20500 78.000
49.25000 80.000
49.29500 71.000
49.34000 83.000
49.38500 74.000
49.43000 106.000
49.47500 123.000
49.52000 101.000
49.56500 92.000
49.61000 97.000
49.65500 115.000
49.70000 110.000
49.74500 104.000
49.79000 98.000
49.83500 113.000
49.88000 167.000
49.92500 211.000
49.97000 204.000
50.01500 198.000
50.06000 136.000
50.10500 85.000
50.15000 88.000
50.19500 76.000
50.24000 69.000
50.28500 75.000
50.33000 73.000
50.37500 74.000
50.42000 84.000
50.46500 77.000
50.51000 77.000
50.55500 86.000
50.60000 86.000
50.64500 66.000
50.69000 61.000
50.73500 79.000
50.78000 67.000
50.82500 84.000
50.87000 72.000
50.91500 80.000
50.96000 82.000
51.00500 100.000
51.05000 115.000
51.09500 172.000
51.14000 243.000
51.18500 350.000
51.23000 360.000
51.27500 254.000
51.32000 137.000
51.36500 91.000
51.41000 99.000
51.45500 84.000
51.50000 77.000
51.54500 91.000
51.59000 82.000
51.63500 97.000
51.68000 86.000
51.72500 92.000
51.77000 86.000
51.81500 92.000
51.86000 109.000
51.90500 115.000
51.95000 179.000
51.99500 244.000
52.04000 270.000
52.08500 227.000
52.13000 116.000
52.17500 97.000
52.22000 76.000
52.26500 61.000
52.31000 84.000
52.35500 83.000
52.40000 76.000
52.44500 89.000
52.49000 84.000
52.53500 91.000
52.58000 76.000
52.62500 74.000
52.67000 75.000
52.71500 86.000
52.76000 68.000
52.80500 99.000
52.85000 108.000
52.89500 170.000
52.94000 218.000
52.98500 270.000
53.03000 269.000
53.07500 287.000
53.12000 271.000
53.16500 199.000
53.21000 142.000
53.25500 125.000
53.30000 94.000
53.34500 95.000
53.39000 82.000
53.43500 83.000
53.48000 64.000
53.52500 90.000
53.57000 87.000
53.61500 72.000
53.66000 89.000
53.70500 89.000
53.75000 100.000
53.79500 116.000
53.84000 155.000
53.88500 205.000
53.93000 249.000
53.97500 226.000
54.02000 177.000
54.06500 112.000
54.11000 93.000
54.15500 94.000
54.20000 76.000
54.24500 79.000
54.29000 87.000
54.33500 97.000
54.38000 78.000
54.42500 84.000
54.47000 88.000
54.51500 76.000
54.56000 71.000
54.60500 79.000
54.65000 81.000
54.69500 66.000
54.74000 92.000
54.78500 81.000
54.83000 82.000
54.87500 89.000
54.92000 87.000
54.96500 92.000
55.01000 111.000
55.05500 123.000
55.10000 135.000
55.14500 141.000
55.19000 145.000
55.23500 133.000
55.28000 111.000
55.32500 107.000
55.37000 120.000
55.41500 144.000
55.46000 121.000
55.50500 104.000
55.55000 84.000
55.59500 103.000
55.64000 155.000
55.68500 206.000
55.73000 219.000
55.77500 199.000
55.82000 153.000
55.86500 123.000
55.91000 104.000
55.95500 109.000
56.00000 77.000
56.04500 76.000
56.09000 88.000
56.13500 86.000
56.18000 85.000
56.22500 106.000
56.27000 84.000
56.31500 69.000
56.36000 85.000
56.40500 95.000
56.45000 94.000
56.49500 128.000
56.54000 146.000
56.58500 195.000
56.63000 245.000
56.67500 268.000
56.72000 221.000
56.76500 193.000
56.81000 131.000
56.85500 93.000
56.90000 87.000
56.94500 94.000
56.99000 93.000
57.03500 96.000
57.08000 114.000
57.12500 100.000
57.17000 138.000
57.21500 172.000
57.26000 214.000
57.30500 265.000
57.35000 232.000
57.39500 179.000
57.44000 139.000
57.48500 138.000
57.53000 148.000
57.57500 142.000
57.62000 119.000
57.66500 121.000
57.71000 136.000
57.75500 125.000
57.80000 120.000
57.84500 102.000
57.89000 91.000
57.93500 81.000
57.98000 79.000
58.02500 76.000
58.07000 80.000
58.11500 75.000
58.16000 70.000
58.20500 72.000
58.25000 84.000
58.29500 75.000
58.34000 83.000
58.38500 73.000
58.43000 72.000
58.47500 79.000
58.52000 73.000
58.56500 84.000
58.61000 75.000
58.65500 80.000
58.70000 69.000
58.74500 75.000
58.79000 68.000
58.83500 87.000
58.88000 84.000
58.92500 86.000
58.97000 107.000
59.01500 122.000
59.06000 121.000
59.10500 120.000
59.15000 122.000
59.19500 99.000
59.24000 81.000
59.28500 81.000
59.33000 78.000
59.37500 89.000
59.42000 70.000
59.46500 85.000
59.51000 78.000
59.55500 85.000
59.60000 89.000
59.64500 74.000
59.69000 95.000
59.73500 101.000
59.78000 93.000
59.82500 102.000
59.87000 118.000
59.91500 113.000
59.96000 122.000
60.00500 97.000
60.05000 98.000
60.09500 101.000
60.14000 95.000
60.18500 104.000
60.23000 96.000
60.27500 80.000
60.32000 101.000
60.36500 103.000
60.41000 120.000
60.45500 126.000
60.50000 125.000
60.54500 101.000
60.59000 101.000
60.63500 96.000
60.68000 87.000
60.72500 80.000
60.77000 82.000
60.81500 82.000
60.86000 83.000
60.90500 84.000
60.95000 81.000
60.99500 90.000
61.04000 89.000
61.08500 90.000
61.13000 81.000
61.17500 83.000
61.22000 71.000
61.26500 78.000
61.31000 78.000
61.35500 80.000
61.40000 80.000
61.44500 82.000
61.49000 101.000
61.53500 119.000
61.58000 132.000
61.62500 127.000
61.67000 96.000
61.71500 90.000
61.76000 72.000
61.80500 79.000
61.85000 86.000
61.89500 87.000
61.94000 79.000
61.98500 73.000