File: ISoD/xrd_data/HSC010_R02.xyd
    2.000      565
    2.045      572
    2.090      532
    2.135      461
    2.180      476
    2.225      451
    2.270      404
    2.315      381
    2.360      373
    2.405      354
    2.450      332
    2.495      331
    2.540      319
    2.585      288
    2.630      281
    2.675      277
    2.720      256
    2.765      274
    2.810      256
    2.855      257
    2.900      263
    2.945      249
    2.990      228
    3.035      242
    3.080      228
    3.125      227
    3.170      197
    3.215      256
    3.260      221
    3.305      200
    3.350      197
    3.395      202
    3.440      183
    3.485      219
    3.530      223
    3.575      192
    3.620      176
    3.665      214
    3.710      183
    3.755      200
    3.800      198
    3.845      189
    3.890      214
    3.935      210
    3.980      179
    4.025      188
    4.070      186
    4.115      202
    4.160      180
    4.205      195
    4.250      181
    4.295      186
    4.340      195
    4.385      182
    4.430      176
    4.475      198
    4.520      192
    4.565      195
    4.610      196
    4.655      171
    4.700      189
    4.745      182
    4.790      167
    4.835      183
    4.880      178
    4.925      173
    4.970      196
    5.015      171
    5.060      171
    5.105      167
    5.150      156
    5.195      178
    5.240      200
    5.285      179
    5.330      173
    5.375      176
    5.420      172
    5.465      171
    5.510      201
    5.555      182
    5.600      186
    5.645      175
    5.690      180
    5.735      176
    5.780      180
    5.825      186
    5.870      200
    5.915      232
    5.960      235
    6.005      289
    6.050      308
    6.095      398
    6.140      510
    6.185      352
    6.230      250
    6.275      194
    6.320      209
    6.365      194
    6.410      171
    6.455      184
    6.500      178
    6.545      179
    6.590      175
    6.635      184
    6.680      162
    6.725      189
    6.770      166
    6.815      179
    6.860      183
    6.905      156
    6.950      201
    6.995      189
    7.040      192
    7.085      197
    7.130      163
    7.175      176
    7.220      171
    7.265      198
    7.310      171
    7.355      178
    7.400      204
    7.445      173
    7.490      157
    7.535      184
    7.580      203
    7.625      176
    7.670      174
    7.715      184
    7.760      174
    7.805      176
    7.850      165
    7.895      167
    7.940      177
    7.985      179
    8.030      176
    8.075      184
    8.120      168
    8.165      175
    8.210      183
    8.255      174
    8.300      184
    8.345      185
    8.390      165
    8.435      189
    8.480      182
    8.525      184
    8.570      179
    8.615      184
    8.660      166
    8.705      170
    8.750      173
    8.795      153
    8.840      177
    8.885      181
    8.930      174
    8.975      184
    9.020      179
    9.065      164
    9.110      193
    9.155      177
    9.200      174
    9.245      168
    9.290      185
    9.335      177
    9.380      175
    9.425      174
    9.470      187
    9.515      184
    9.560      166
    9.605      182
    9.650      162
    9.695      163
    9.740      179
    9.785      176
    9.830      172
    9.875      184
    9.920      191
    9.965      186
   10.010      187
   10.055      181
   10.100      165
   10.145      183
   10.190      177
   10.235      189
   10.280      185
   10.325      187
   10.370      179
   10.415      192
   10.460      174
   10.505      181
   10.550      207
   10.595      199
   10.640      186
   10.685      186
   10.730      186
   10.775      171
   10.820      192
   10.865      180
   10.910      185
   10.955      208
   11.000      192
   11.045      181
   11.090      199
   11.135      187
   11.180      196
   11.225      211
   11.270      186
   11.315      196
   11.360      190
   11.405      196
   11.450      174
   11.495      176
   11.540      197
   11.585      189
   11.630      184
   11.675      190
   11.720      203
   11.765      183
   11.810      219
   11.855      209
   11.900      197
   11.945      235
   11.990      225
   12.035      286
   12.080      326
   12.125      459
   12.170      628
   12.215      901
   12.260     1129
   12.305     1280
   12.350      879
   12.395      396
   12.440      323
   12.485      298
   12.530      272
   12.575      269
   12.620      276
   12.665      265
   12.710      267
   12.755      260
   12.800      256
   12.845      266
   12.890      278
   12.935      268
   12.980      253
   13.025      246
   13.070      250
   13.115      245
   13.160      269
   13.205      267
   13.250      277
   13.295      308
   13.340      349
   13.385      375
   13.430      416
   13.475      310
   13.520      273
   13.565      255
   13.610      263
   13.655      247
   13.700      266
   13.745      234
   13.790      219
   13.835      223
   13.880      209
   13.925      223
   13.970      233
   14.015      202
   14.060      216
   14.105      225
   14.150      214
   14.195      225
   14.240      229
   14.285      212
   14.330      219
   14.375      222
   14.420      209
   14.465      213
   14.510      216
   14.555      207
   14.600      214
   14.645      220
   14.690      210
   14.735      198
   14.780      231
   14.825      199
   14.870      210
   14.915      217
   14.960      235
   15.005      217
   15.050      208
   15.095      212
   15.140      230
   15.185      215
   15.230      217
   15.275      206
   15.320      218
   15.365      191
   15.410      221
   15.455      209
   15.500      194
   15.545      208
   15.590      210
   15.635      216
   15.680      234
   15.725      219
   15.770      205
   15.815      184
   15.860      235
   15.905      219
   15.950      205
   15.995      233
   16.040      218
   16.085      216
   16.130      188
   16.175      201
   16.220      222
   16.265      244
   16.310      238
   16.355      215
   16.400      256
   16.445      251
   16.490      260
   16.535      252
   16.580      234
   16.625      231
   16.670      239
   16.715      214
   16.760      231
   16.805      237
   16.850      225
   16.895      254
   16.940      227
   16.985      230
   17.030      226
   17.075      224
   17.120      258
   17.165      227
   17.210      215
   17.255      222
   17.300      241
   17.345      221
   17.390      231
   17.435      218
   17.480      231
   17.525      230
   17.570      234
   17.615      222
   17.660      268
   17.705      212
   17.750      237
   17.795      260
   17.840      233
   17.885      255
   17.930      220
   17.975      244
   18.020      275
   18.065      280
   18.110      302
   18.155      270
   18.200      238
   18.245      242
   18.290      237
   18.335      249
   18.380      261
   18.425      260
   18.470      273
   18.515      274
   18.560      289
   18.605      228
   18.650      245
   18.695      261
   18.740      246
   18.785      258
   18.830      264
   18.875      251
   18.920      248
   18.965      234
   19.010      247
   19.055      249
   19.100      232
   19.145      256
   19.190      251
   19.235      231
   19.280      266
   19.325      272
   19.370      296
   19.415      261
   19.460      305
   19.505      321
   19.550      287
   19.595      302
   19.640      314
   19.685      248
   19.730      260
   19.775      281
   19.820      261
   19.865      253
   19.910      239
   19.955      241
   20.000      260
   20.045      262
   20.090      258
   20.135      263
   20.180      233
   20.225      256
   20.270      255
   20.315      250
   20.360      250
   20.405      255
   20.450      233
   20.495      237
   20.540      258
   20.585      264
   20.630      262
   20.675      264
   20.720      254
   20.765      263
   20.810      269
   20.855      249
   20.900      251
   20.945      263
   20.990      254
   21.035      270
   21.080      266
   21.125      268
   21.170      249
   21.215      260
   21.260      262
   21.305      294
   21.350      249
   21.395      275
   21.440      264
   21.485      269
   21.530      273
   21.575      283
   21.620      280
   21.665      290
   21.710      275
   21.755      260
   21.800      266
   21.845      275
   21.890      259
   21.935      288
   21.980      284
   22.025      279
   22.070      290
   22.115      303
   22.160      306
   22.205      296
   22.250      268
   22.295      269
   22.340      277
   22.385      281
   22.430      252
   22.475      281
   22.520      282
   22.565      267
   22.610      286
   22.655      281
   22.700      276
   22.745      257
   22.790      272
   22.835      293
   22.880      282
   22.925      266
   22.970      277
   23.015      279
   23.060      297
   23.105      280
   23.150      268
   23.195      294
   23.240      303
   23.285      302
   23.330      269
   23.375      286
   23.420      303
   23.465      296
   23.510      285
   23.555      292
   23.600      286
   23.645      269
   23.690      301
   23.735      305
   23.780      287
   23.825      252
   23.870      278
   23.915      264
   23.960      262
   24.005      261
   24.050      291
   24.095      304
   24.140      288
   24.185      266
   24.230      271
   24.275      249
   24.320      270
   24.365      270
   24.410      264
   24.455      301
   24.500      272
   24.545      304
   24.590      288
   24.635      284
   24.680      307
   24.725      323
   24.770      329
   24.815      328
   24.860      320
   24.905      306
   24.950      297
   24.995      312
   25.040      295
   25.085      283
   25.130      326
   25.175      313
   25.220      353
   25.265      312
   25.310      316
   25.355      333
   25.400      325
   25.445      337
   25.490      315
   25.535      324
   25.580      345
   25.625      322
   25.670      338
   25.715      406
   25.760      488
   25.805      493
   25.850      489
   25.895      419
   25.940      385
   25.985      364
   26.030      408
   26.075      372
   26.120      405
   26.165      420
   26.210      432
   26.255      525
   26.300      563
   26.345      580
   26.390      513
   26.435      525
   26.480      492
   26.525      471
   26.570      494
   26.615      502
   26.660      504
   26.705      514
   26.750      583
   26.795      561
   26.840      599
   26.885      557
   26.930      552
   26.975      610
   27.020      666
   27.065      669
   27.110      740
   27.155      786
   27.200      790
   27.245      687
   27.290      742
   27.335      721
   27.380      669
   27.425      702
   27.470      673
   27.515      706
   27.560      760
   27.605      689
   27.650      683
   27.695      818
   27.740      778
   27.785      837
   27.830      818
   27.875      740
   27.920      663
   27.965      572
   28.010      515
   28.055      504
   28.100      449
   28.145      428
   28.190      406
   28.235      387
   28.280      374
   28.325      389
   28.370      353
   28.415      361
   28.460      311
   28.505      326
   28.550      317
   28.595      311
   28.640      312
   28.685      307
   28.730      290
   28.775      326
   28.820      307
   28.865      307
   28.910      311
   28.955      292
   29.000      298
   29.045      277
   29.090      276
   29.135      248
   29.180      296
   29.225      287
   29.270      243
   29.315      258
   29.360      267
   29.405      248
   29.450      247
   29.495      246
   29.540      265
   29.585      245
   29.630      256
   29.675      245
   29.720      246
   29.765      241
   29.810      239
   29.855      253
   29.900      256
   29.945      247
   29.990      261
   30.035      262
   30.080      264
   30.125      238
   30.170      248
   30.215      245
   30.260      201
   30.305      228
   30.350      254
   30.395      219
   30.440      225
   30.485      227
   30.530      222
   30.575      231
   30.620      232
   30.665      247
   30.710      254
   30.755      248
   30.800      262
   30.845      242
   30.890      236
   30.935      261
   30.980      251
   31.025      264
   31.070      282
   31.115      315
   31.160      272
   31.205      229
   31.250      224
   31.295      236
   31.340      230
   31.385      219
   31.430      221
   31.475      227
   31.520      209
   31.565      217
   31.610      216
   31.655      201
   31.700      212
   31.745      221
   31.790      173
   31.835      215
   31.880      209
   31.925      187
   31.970      200
   32.015      190
   32.060      187
   32.105      193
   32.150      189
   32.195      189
   32.240      188
   32.285      196
   32.330      176
   32.375      177
   32.420      182
   32.465      181
   32.510      182
   32.555      168
   32.600      170
   32.645      174
   32.690      149
   32.735      189
   32.780      151
   32.825      178
   32.870      161
   32.915      205
   32.960      181
   33.005      156
   33.050      187
   33.095      170
   33.140      161
   33.185      179
   33.230      166
   33.275      186
   33.320      173
   33.365      177
   33.410      172
   33.455      179
   33.500      165
   33.545      181
   33.590      166
   33.635      189
   33.680      173
   33.725      173
   33.770      184
   33.815      169
   33.860      176
   33.905      185
   33.950      182
   33.995      168
   34.040      174
   34.085      168
   34.130      169
   34.175      158
   34.220      156
   34.265      158
   34.310      153
   34.355      158
   34.400      168
   34.445      159
   34.490      177
   34.535      152
   34.580      155
   34.625      162
   34.670      177
   34.715      162
   34.760      151
   34.805      152
   34.850      146
   34.895      143
   34.940      166
   34.985      137
   35.030      151
   35.075      172
   35.120      139
   35.165      140
   35.210      137
   35.255      159
   35.300      137
   35.345      139
   35.390      149
   35.435      157
   35.480      123
   35.525      138
   35.570      149
   35.615      140
   35.660      153
   35.705      147
   35.750      131
   35.795      133
   35.840      157
   35.885      134
   35.930      123
   35.975      145
   36.020      133
   36.065      127
   36.110      144
   36.155      141
   36.200      136
   36.245      137
   36.290      132
   36.335      137
   36.380      120
   36.425      144
   36.470      128
   36.515      124
   36.560      129
   36.605      130
   36.650      119
   36.695      134
   36.740      142
   36.785      120
   36.830      121
   36.875      118
   36.920      128
   36.965      120
   37.010      133
   37.055      128
   37.100      136
   37.145      125
   37.190      141
   37.235      127
   37.280      127
   37.325      108
   37.370      121
   37.415      135
   37.460      132
   37.505      140
   37.550      142
   37.595      137
   37.640      146
   37.685      108
   37.730      140
   37.775      118
   37.820      109
   37.865      118
   37.910      113
   37.955      138
   38.000      137
   38.045      123
   38.090      136
   38.135      120
   38.180      108
   38.225      113
   38.270      122
   38.315      116
   38.360      141
   38.405      143
   38.450      121
   38.495      127
   38.540      112
   38.585      114
   38.630      118
   38.675      121
   38.720      131
   38.765      116
   38.810      117
   38.855      123
   38.900      112
   38.945      117
   38.990      110
   39.035      111
   39.080      113
   39.125      119
   39.170      129
   39.215      104
   39.260      119
   39.305      110
   39.350      120
   39.395      128
   39.440      107
   39.485      108
   39.530      131
   39.575      125
   39.620      123
   39.665      110
   39.710      100
   39.755      130
   39.800      123
   39.845      118
   39.890      117
   39.935      125
   39.980      117
   40.025      111
   40.070      107
   40.115      119
   40.160      123
   40.205      138
   40.250      131
   40.295      128
   40.340      137
   40.385      117
   40.430      121
   40.475      136
   40.520      135
   40.565      136
   40.610      135
   40.655      126
   40.700      111
   40.745      122
   40.790      130
   40.835      123
   40.880      132
   40.925      122
   40.970      130
   41.015      136
   41.060      119
   41.105      127
   41.150      154
   41.195      127
   41.240      124
   41.285      126
   41.330      126
   41.375      120
   41.420      149
   41.465      118
   41.510      107
   41.555      113
   41.600      121
   41.645      104
   41.690      122
   41.735      110
   41.780      118
   41.825      116
   41.870      127
   41.915      126
   41.960      132
   42.005      122
   42.050      102
   42.095      116
   42.140      119
   42.185      108
   42.230      115
   42.275      121
   42.320      135
   42.365      109
   42.410      121
   42.455      103
   42.500      124
   42.545      123
   42.590      124
   42.635      116
   42.680      116
   42.725      151
   42.770      124
   42.815      127
   42.860      132
   42.905      108
   42.950      107
   42.995      122
   43.040      129
   43.085      126
   43.130      117
   43.175      130
   43.220      125
   43.265      115
   43.310      128
   43.355      101
   43.400      117
   43.445      109
   43.490      105
   43.535      119
   43.580      107
   43.625      121
   43.670      118
   43.715      116
   43.760      125
   43.805      119
   43.850      122
   43.895      112
   43.940      126
   43.985      111
   44.030      123
   44.075      135
   44.120      118
   44.165      125
   44.210      131
   44.255      121
   44.300      108
   44.345      134
   44.390      140
   44.435      137
   44.480      125
   44.525      107
   44.570      134
   44.615      134
   44.660      117
   44.705      104
   44.750      115
   44.795      121
   44.840      124
   44.885      119
   44.930      118
   44.975      109
   45.020      118
   45.065      122
   45.110      123
   45.155      101
   45.200      100
   45.245      111
   45.290      125
   45.335      113
   45.380       96
   45.425      117
   45.470       93
   45.515      113
   45.560      123
   45.605      105
   45.650      115
   45.695      109
   45.740      129
   45.785      128
   45.830      109
   45.875      100
   45.920      109
   45.965      117
   46.010      110
   46.055      108
   46.100       99
   46.145      119
   46.190      132
   46.235      117
   46.280      105
   46.325      105
   46.370      116
   46.415      100
   46.460      121
   46.505      110
   46.550      110
   46.595      109
   46.640      111
   46.685      123
   46.730      121
   46.775      112
   46.820      124
   46.865      111
   46.910      115
   46.955      126
   47.000      116
   47.045      118
   47.090      104
   47.135      106
   47.180      112
   47.225      115
   47.270      110
   47.315       84
   47.360      113
   47.405      109
   47.450      102
   47.495      129
   47.540      112
   47.585      104
   47.630      102
   47.675      108
   47.720      109
   47.765      112
   47.810       95
   47.855      122
   47.900      100
   47.945      122
   47.990      100
   48.035      101
   48.080       98
   48.125       94
   48.170      114
   48.215      104
   48.260      100
   48.305      101
   48.350       97
   48.395      101
   48.440       90
   48.485       96
   48.530      102
   48.575      102
   48.620       99
   48.665      119
   48.710      103
   48.755      110
   48.800       89
   48.845       85
   48.890      109
   48.935       86
   48.980       87
   49.025      116
   49.070      110
   49.115      108
   49.160      103
   49.205      104
   49.250      111
   49.295      107
   49.340      116
   49.385      104
   49.430      111
   49.475       97
   49.520      109
   49.565       96
   49.610      111
   49.655      106
   49.700       98
   49.745      100
   49.790       97
   49.835      105
   49.880      105
   49.925       89
   49.970      109
   50.015      103
   50.060      125
   50.105      105
   50.150       99
   50.195      122
   50.240      106
   50.285       98
   50.330       93
   50.375      101
   50.420      102
   50.465       93
   50.510      120
   50.555       92
   50.600       87
   50.645      114
   50.690      102
   50.735       92
   50.780       96
   50.825      101
   50.870       87
   50.915      108
   50.960       90
   51.005       97
   51.050      105
   51.095       91
   51.140      100
   51.185      105
   51.230      110
   51.275       87
   51.320      104
   51.365       99
   51.410      110
   51.455      106
   51.500       96
   51.545      102
   51.590       85
   51.635       89
   51.680      104
   51.725      102
   51.770       91
   51.815      111
   51.860       97
   51.905       93
   51.950       84
   51.995      113
   52.040      110
   52.085      112
   52.130       93
   52.175      108
   52.220       94
   52.265       99
   52.310      103
   52.355       97
   52.400       95
   52.445       94
   52.490       93
   52.535       93
   52.580       81
   52.625       88
   52.670       84
   52.715      100
   52.760       91
   52.805      106
   52.850       94
   52.895       83
   52.940       92
   52.985       82
   53.030       97
   53.075       98
   53.120      101
   53.165       91
   53.210       98
   53.255       98
   53.300      101
   53.345      110
   53.390      100
   53.435      113
   53.480       85
   53.525      104
   53.570       95
   53.615      104
   53.660       97
   53.705      106
   53.750       94
   53.795       96
   53.840       86
   53.885      104
   53.930      108
   53.975       89
   54.020      105
   54.065      106
   54.110       99
   54.155      104
   54.200      106
   54.245       91
   54.290       96
   54.335      102
   54.380       99
   54.425       99
   54.470       86
   54.515       89
   54.560      109
   54.605      111
   54.650       96
   54.695       94
   54.740      101
   54.785      113
   54.830      110
   54.875       90
   54.920       96
   54.965       91
   55.010      111
   55.055      111
   55.100       96
   55.145       93
   55.190      104
   55.235      104
   55.280      105
   55.325       86
   55.370      103
   55.415       97
   55.460      104
   55.505       81
   55.550      102
   55.595      103
   55.640       93
   55.685       93
   55.730       93
   55.775      106
   55.820       89
   55.865       89
   55.910      109
   55.955       98
   56.000       83
   56.045       91
   56.090       93
   56.135       99
   56.180      109
   56.225       92
   56.270       97
   56.315      102
   56.360       99
   56.405       89
   56.450       99
   56.495       95
   56.540      108
   56.585      121
   56.630       96
   56.675      108
   56.720       95
   56.765       94
   56.810       92
   56.855      105
   56.900       87
   56.945      109
   56.990      103
   57.035      109
   57.080       88
   57.125      106
   57.170       87
   57.215       87
   57.260       98
   57.305      105
   57.350       92
   57.395      108
   57.440       94
   57.485      107
   57.530       95
   57.575       92
   57.620       93
   57.665       87
   57.710       92
   57.755      103
   57.800       82
   57.845      103
   57.890       93
   57.935       90
   57.980      102
   58.025       88
   58.070       81
   58.115       80
   58.160       77
   58.205       83
   58.250       84
   58.295       83
   58.340       90
   58.385       88
   58.430       90
   58.475       84
   58.520      102
   58.565       87
   58.610       88
   58.655       90
   58.700       80
   58.745       73
   58.790       79
   58.835       81
   58.880       82
   58.925       76
   58.970       86
   59.015       93
   59.060       84
   59.105       88
   59.150       87
   59.195       87
   59.240       80
   59.285       73
   59.330       94
   59.375       94
   59.420      106
   59.465       82
   59.510       87
   59.555       85
   59.600       81
   59.645       85
   59.690       80
   59.735       78
   59.780       73
   59.825       84
   59.870       92
   59.915       90
   59.960      101
   60.005       79
   60.050       79
   60.095       97
   60.140       84
   60.185       81
   60.230       72
   60.275       93
   60.320       81
   60.365       74
   60.410       81
   60.455       81
   60.500       77
   60.545       69
   60.590       86
   60.635       84
   60.680       88
   60.725       87
   60.770       81
   60.815       85
   60.860       75
   60.905       85
   60.950       89
   60.995       73
   61.040       78
   61.085       70
   61.130       83
   61.175       72
   61.220       79
   61.265       77
   61.310       81
   61.355       79
   61.400       70
   61.445       73
   61.490       78
   61.535       89
   61.580       80
   61.625       66
   61.670       75
   61.715       79
   61.760       73
   61.805       86
   61.850       89
   61.895       77
   61.940       75
   61.985       88