File: ISoD/xrd_data/HSC041.xy
2.00000 3.000
2.04500 1.000
2.09000 1.000
2.13500 1.000
2.18000 2.000
2.22500 3.000
2.27000 3.000
2.31500 2.000
2.36000 2.000
2.40500 4.000
2.45000 2.000
2.49500 1.000
2.54000 5.000
2.58500 1.000
2.63000 3.000
2.67500 10.000
2.72000 16.000
2.76500 42.000
2.81000 101.000
2.85500 185.000
2.90000 269.000
2.94500 287.000
2.99000 273.000
3.03500 272.000
3.08000 270.000
3.12500 244.000
3.17000 259.000
3.21500 249.000
3.26000 271.000
3.30500 255.000
3.35000 286.000
3.39500 270.000
3.44000 233.000
3.48500 233.000
3.53000 242.000
3.57500 243.000
3.62000 253.000
3.66500 258.000
3.71000 265.000
3.75500 241.000
3.80000 254.000
3.84500 244.000
3.89000 238.000
3.93500 236.000
3.98000 227.000
4.02500 268.000
4.07000 245.000
4.11500 213.000
4.16000 248.000
4.20500 278.000
4.25000 247.000
4.29500 247.000
4.34000 269.000
4.38500 250.000
4.43000 245.000
4.47500 256.000
4.52000 258.000
4.56500 274.000
4.61000 249.000
4.65500 267.000
4.70000 253.000
4.74500 246.000
4.79000 255.000
4.83500 263.000
4.88000 266.000
4.92500 255.000
4.97000 260.000
5.01500 263.000
5.06000 261.000
5.10500 270.000
5.15000 279.000
5.19500 282.000
5.24000 296.000
5.28500 269.000
5.33000 275.000
5.37500 279.000
5.42000 276.000
5.46500 270.000
5.51000 263.000
5.55500 322.000
5.60000 281.000
5.64500 279.000
5.69000 299.000
5.73500 294.000
5.78000 322.000
5.82500 283.000
5.87000 320.000
5.91500 353.000
5.96000 413.000
6.00500 453.000
6.05000 521.000
6.09500 581.000
6.14000 615.000
6.18500 575.000
6.23000 414.000
6.27500 346.000
6.32000 325.000
6.36500 332.000
6.41000 318.000
6.45500 308.000
6.50000 292.000
6.54500 297.000
6.59000 308.000
6.63500 302.000
6.68000 300.000
6.72500 289.000
6.77000 283.000
6.81500 274.000
6.86000 302.000
6.90500 309.000
6.95000 303.000
6.99500 293.000
7.04000 283.000
7.08500 315.000
7.13000 293.000
7.17500 290.000
7.22000 308.000
7.26500 302.000
7.31000 321.000
7.35500 298.000
7.40000 330.000
7.44500 294.000
7.49000 320.000
7.53500 303.000
7.58000 307.000
7.62500 314.000
7.67000 327.000
7.71500 333.000
7.76000 332.000
7.80500 327.000
7.85000 315.000
7.89500 324.000
7.94000 332.000
7.98500 343.000
8.03000 373.000
8.07500 349.000
8.12000 340.000
8.16500 365.000
8.21000 356.000
8.25500 335.000
8.30000 340.000
8.34500 350.000
8.39000 341.000
8.43500 329.000
8.48000 286.000
8.52500 315.000
8.57000 326.000
8.61500 288.000
8.66000 316.000
8.70500 297.000
8.75000 302.000
8.79500 305.000
8.84000 287.000
8.88500 304.000
8.93000 300.000
8.97500 321.000
9.02000 335.000
9.06500 315.000
9.11000 298.000
9.15500 313.000
9.20000 312.000
9.24500 277.000
9.29000 311.000
9.33500 324.000
9.38000 304.000
9.42500 328.000
9.47000 293.000
9.51500 328.000
9.56000 303.000
9.60500 295.000
9.65000 306.000
9.69500 303.000
9.74000 321.000
9.78500 293.000
9.83000 283.000
9.87500 311.000
9.92000 303.000
9.96500 315.000
10.01000 329.000
10.05500 318.000
10.10000 300.000
10.14500 327.000
10.19000 328.000
10.23500 324.000
10.28000 357.000
10.32500 333.000
10.37000 305.000
10.41500 342.000
10.46000 389.000
10.50500 379.000
10.55000 433.000
10.59500 609.000
10.64000 738.000
10.68500 469.000
10.73000 406.000
10.77500 405.000
10.82000 445.000
10.86500 512.000
10.91000 677.000
10.95500 893.000
11.00000 1286.000
11.04500 1376.000
11.09000 684.000
11.13500 426.000
11.18000 365.000
11.22500 355.000
11.27000 316.000
11.31500 335.000
11.36000 324.000
11.40500 330.000
11.45000 333.000
11.49500 319.000
11.54000 332.000
11.58500 363.000
11.63000 340.000
11.67500 335.000
11.72000 332.000
11.76500 310.000
11.81000 326.000
11.85500 350.000
11.90000 366.000
11.94500 331.000
11.99000 342.000
12.03500 368.000
12.08000 399.000
12.12500 420.000
12.17000 540.000
12.21500 622.000
12.26000 743.000
12.30500 766.000
12.35000 636.000
12.39500 434.000
12.44000 436.000
12.48500 367.000
12.53000 379.000
12.57500 373.000
12.62000 383.000
12.66500 413.000
12.71000 382.000
12.75500 431.000
12.80000 417.000
12.84500 406.000
12.89000 419.000
12.93500 407.000
12.98000 405.000
13.02500 395.000
13.07000 389.000
13.11500 438.000
13.16000 423.000
13.20500 393.000
13.25000 404.000
13.29500 405.000
13.34000 409.000
13.38500 400.000
13.43000 399.000
13.47500 380.000
13.52000 357.000
13.56500 364.000
13.61000 363.000
13.65500 406.000
13.70000 358.000
13.74500 367.000
13.79000 395.000
13.83500 378.000
13.88000 391.000
13.92500 360.000
13.97000 372.000
14.01500 390.000
14.06000 393.000
14.10500 405.000
14.15000 401.000
14.19500 392.000
14.24000 419.000
14.28500 394.000
14.33000 413.000
14.37500 410.000
14.42000 384.000
14.46500 390.000
14.51000 383.000
14.55500 396.000
14.60000 416.000
14.64500 408.000
14.69000 412.000
14.73500 391.000
14.78000 412.000
14.82500 444.000
14.87000 440.000
14.91500 461.000
14.96000 419.000
15.00500 418.000
15.05000 390.000
15.09500 398.000
15.14000 401.000
15.18500 433.000
15.23000 385.000
15.27500 428.000
15.32000 406.000
15.36500 438.000
15.41000 394.000
15.45500 406.000
15.50000 387.000
15.54500 397.000
15.59000 386.000
15.63500 391.000
15.68000 422.000
15.72500 377.000
15.77000 391.000
15.81500 390.000
15.86000 405.000
15.90500 386.000
15.95000 372.000
15.99500 390.000
16.04000 402.000
16.08500 425.000
16.13000 387.000
16.17500 371.000
16.22000 386.000
16.26500 397.000
16.31000 448.000
16.35500 421.000
16.40000 403.000
16.44500 395.000
16.49000 411.000
16.53500 388.000
16.58000 409.000
16.62500 385.000
16.67000 392.000
16.71500 405.000
16.76000 386.000
16.80500 393.000
16.85000 377.000
16.89500 411.000
16.94000 408.000
16.98500 379.000
17.03000 414.000
17.07500 405.000
17.12000 399.000
17.16500 412.000
17.21000 375.000
17.25500 408.000
17.30000 420.000
17.34500 441.000
17.39000 439.000
17.43500 488.000
17.48000 488.000
17.52500 516.000
17.57000 531.000
17.61500 497.000
17.66000 507.000
17.70500 429.000
17.75000 430.000
17.79500 404.000
17.84000 415.000
17.88500 435.000
17.93000 410.000
17.97500 404.000
18.02000 407.000
18.06500 403.000
18.11000 368.000
18.15500 381.000
18.20000 406.000
18.24500 395.000
18.29000 375.000
18.33500 395.000
18.38000 410.000
18.42500 385.000
18.47000 418.000
18.51500 396.000
18.56000 413.000
18.60500 412.000
18.65000 418.000
18.69500 411.000
18.74000 382.000
18.78500 353.000
18.83000 397.000
18.87500 370.000
18.92000 409.000
18.96500 399.000
19.01000 392.000
19.05500 349.000
19.10000 376.000
19.14500 374.000
19.19000 370.000
19.23500 402.000
19.28000 383.000
19.32500 413.000
19.37000 372.000
19.41500 391.000
19.46000 416.000
19.50500 391.000
19.55000 390.000
19.59500 383.000
19.64000 410.000
19.68500 387.000
19.73000 412.000
19.77500 417.000
19.82000 393.000
19.86500 410.000
19.91000 434.000
19.95500 415.000
20.00000 406.000
20.04500 395.000
20.09000 398.000
20.13500 402.000
20.18000 399.000
20.22500 395.000
20.27000 408.000
20.31500 376.000
20.36000 398.000
20.40500 401.000
20.45000 373.000
20.49500 376.000
20.54000 395.000
20.58500 377.000
20.63000 377.000
20.67500 383.000
20.72000 391.000
20.76500 354.000
20.81000 376.000
20.85500 405.000
20.90000 341.000
20.94500 424.000
20.99000 411.000
21.03500 425.000
21.08000 446.000
21.12500 489.000
21.17000 482.000
21.21500 448.000
21.26000 443.000
21.30500 394.000
21.35000 403.000
21.39500 408.000
21.44000 389.000
21.48500 424.000
21.53000 388.000
21.57500 423.000
21.62000 406.000
21.66500 446.000
21.71000 414.000
21.75500 391.000
21.80000 408.000
21.84500 411.000
21.89000 416.000
21.93500 388.000
21.98000 397.000
22.02500 421.000
22.07000 417.000
22.11500 413.000
22.16000 397.000
22.20500 432.000
22.25000 432.000
22.29500 448.000
22.34000 397.000
22.38500 416.000
22.43000 408.000
22.47500 389.000
22.52000 420.000
22.56500 386.000
22.61000 397.000
22.65500 435.000
22.70000 421.000
22.74500 425.000
22.79000 468.000
22.83500 408.000
22.88000 446.000
22.92500 417.000
22.97000 428.000
23.01500 408.000
23.06000 423.000
23.10500 392.000
23.15000 438.000
23.19500 397.000
23.24000 410.000
23.28500 396.000
23.33000 430.000
23.37500 388.000
23.42000 412.000
23.46500 424.000
23.51000 411.000
23.55500 429.000
23.60000 397.000
23.64500 372.000
23.69000 385.000
23.73500 376.000
23.78000 403.000
23.82500 389.000
23.87000 390.000
23.91500 381.000
23.96000 394.000
24.00500 372.000
24.05000 397.000
24.09500 382.000
24.14000 391.000
24.18500 395.000
24.23000 428.000
24.27500 424.000
24.32000 427.000
24.36500 397.000
24.41000 422.000
24.45500 443.000
24.50000 435.000
24.54500 438.000
24.59000 434.000
24.63500 418.000
24.68000 434.000
24.72500 433.000
24.77000 420.000
24.81500 404.000
24.86000 410.000
24.90500 404.000
24.95000 405.000
24.99500 389.000
25.04000 395.000
25.08500 395.000
25.13000 383.000
25.17500 395.000
25.22000 425.000
25.26500 388.000
25.31000 420.000
25.35500 448.000
25.40000 500.000
25.44500 554.000
25.49000 617.000
25.53500 697.000
25.58000 785.000
25.62500 650.000
25.67000 571.000
25.71500 472.000
25.76000 450.000
25.80500 502.000
25.85000 462.000
25.89500 429.000
25.94000 460.000
25.98500 392.000
26.03000 416.000
26.07500 432.000
26.12000 476.000
26.16500 456.000
26.21000 442.000
26.25500 459.000
26.30000 486.000
26.34500 504.000
26.39000 540.000
26.43500 551.000
26.48000 545.000
26.52500 604.000
26.57000 632.000
26.61500 647.000
26.66000 655.000
26.70500 600.000
26.75000 627.000
26.79500 559.000
26.84000 585.000
26.88500 569.000
26.93000 624.000
26.97500 633.000
27.02000 658.000
27.06500 662.000
27.11000 740.000
27.15500 808.000
27.20000 903.000
27.24500 980.000
27.29000 987.000
27.33500 1116.000
27.38000 1188.000
27.42500 1300.000
27.47000 1390.000
27.51500 1594.000
27.56000 1578.000
27.60500 1731.000
27.65000 1896.000
27.69500 2047.000
27.74000 2079.000
27.78500 2089.000
27.83000 2006.000
27.87500 1918.000
27.92000 1777.000
27.96500 1652.000
28.01000 1615.000
28.05500 1846.000
28.10000 2392.000
28.14500 2416.000
28.19000 1414.000
28.23500 943.000
28.28000 742.000
28.32500 726.000
28.37000 670.000
28.41500 550.000
28.46000 537.000
28.50500 527.000
28.55000 500.000
28.59500 471.000
28.64000 458.000
28.68500 427.000
28.73000 434.000
28.77500 448.000
28.82000 405.000
28.86500 418.000
28.91000 408.000
28.95500 421.000
29.00000 408.000
29.04500 432.000
29.09000 369.000
29.13500 391.000
29.18000 360.000
29.22500 397.000
29.27000 406.000
29.31500 384.000
29.36000 397.000
29.40500 381.000
29.45000 389.000
29.49500 383.000
29.54000 358.000
29.58500 370.000
29.63000 347.000
29.67500 361.000
29.72000 370.000
29.76500 344.000
29.81000 340.000
29.85500 349.000
29.90000 355.000
29.94500 340.000
29.99000 357.000
30.03500 349.000
30.08000 338.000
30.12500 381.000
30.17000 370.000
30.21500 399.000
30.26000 369.000
30.30500 369.000
30.35000 343.000
30.39500 331.000
30.44000 348.000
30.48500 349.000
30.53000 323.000
30.57500 329.000
30.62000 353.000
30.66500 321.000
30.71000 342.000
30.75500 339.000
30.80000 325.000
30.84500 332.000
30.89000 343.000
30.93500 358.000
30.98000 338.000
31.02500 389.000
31.07000 374.000
31.11500 364.000
31.16000 356.000
31.20500 331.000
31.25000 293.000
31.29500 287.000
31.34000 318.000
31.38500 289.000
31.43000 276.000
31.47500 285.000
31.52000 299.000
31.56500 287.000
31.61000 282.000
31.65500 275.000
31.70000 273.000
31.74500 278.000
31.79000 255.000
31.83500 277.000
31.88000 292.000
31.92500 284.000
31.97000 277.000
32.01500 275.000
32.06000 287.000
32.10500 289.000
32.15000 288.000
32.19500 255.000
32.24000 299.000
32.28500 281.000
32.33000 290.000
32.37500 266.000
32.42000 275.000
32.46500 253.000
32.51000 277.000
32.55500 275.000
32.60000 273.000
32.64500 248.000
32.69000 265.000
32.73500 241.000
32.78000 246.000
32.82500 241.000
32.87000 269.000
32.91500 257.000
32.96000 282.000
33.00500 251.000
33.05000 253.000
33.09500 258.000
33.14000 240.000
33.18500 271.000
33.23000 255.000
33.27500 244.000
33.32000 234.000
33.36500 251.000
33.41000 279.000
33.45500 300.000
33.50000 309.000
33.54500 262.000
33.59000 266.000
33.63500 242.000
33.68000 276.000
33.72500 269.000
33.77000 274.000
33.81500 283.000
33.86000 256.000
33.90500 259.000
33.95000 241.000
33.99500 261.000
34.04000 249.000
34.08500 275.000
34.13000 261.000
34.17500 253.000
34.22000 251.000
34.26500 267.000
34.31000 251.000
34.35500 267.000
34.40000 260.000
34.44500 252.000
34.49000 265.000
34.53500 253.000
34.58000 233.000
34.62500 216.000
34.67000 218.000
34.71500 234.000
34.76000 237.000
34.80500 210.000
34.85000 221.000
34.89500 235.000
34.94000 244.000
34.98500 217.000
35.03000 210.000
35.07500 238.000
35.12000 220.000
35.16500 237.000
35.21000 204.000
35.25500 225.000
35.30000 183.000
35.34500 239.000
35.39000 221.000
35.43500 211.000
35.48000 222.000
35.52500 200.000
35.57000 196.000
35.61500 206.000
35.66000 207.000
35.70500 220.000
35.75000 214.000
35.79500 214.000
35.84000 207.000
35.88500 205.000
35.93000 201.000
35.97500 200.000
36.02000 198.000
36.06500 187.000
36.11000 196.000
36.15500 212.000
36.20000 203.000
36.24500 214.000
36.29000 194.000
36.33500 197.000
36.38000 199.000
36.42500 207.000
36.47000 213.000
36.51500 212.000
36.56000 220.000
36.60500 197.000
36.65000 189.000
36.69500 191.000
36.74000 189.000
36.78500 186.000
36.83000 188.000
36.87500 196.000
36.92000 202.000
36.96500 199.000
37.01000 190.000
37.05500 192.000
37.10000 185.000
37.14500 204.000
37.19000 209.000
37.23500 203.000
37.28000 203.000
37.32500 192.000
37.37000 184.000
37.41500 212.000
37.46000 202.000
37.50500 202.000
37.55000 192.000
37.59500 179.000
37.64000 197.000
37.68500 183.000
37.73000 202.000
37.77500 187.000
37.82000 185.000
37.86500 179.000
37.91000 166.000
37.95500 182.000
38.00000 190.000
38.04500 157.000
38.09000 191.000
38.13500 174.000
38.18000 175.000
38.22500 188.000
38.27000 189.000
38.31500 182.000
38.36000 185.000
38.40500 185.000
38.45000 183.000
38.49500 192.000
38.54000 172.000
38.58500 187.000
38.63000 190.000
38.67500 184.000
38.72000 167.000
38.76500 192.000
38.81000 177.000
38.85500 197.000
38.90000 202.000
38.94500 202.000
38.99000 177.000
39.03500 213.000
39.08000 188.000
39.12500 205.000
39.17000 176.000
39.21500 176.000
39.26000 193.000
39.30500 196.000
39.35000 188.000
39.39500 204.000
39.44000 284.000
39.48500 237.000
39.53000 206.000
39.57500 207.000
39.62000 211.000
39.66500 182.000
39.71000 190.000
39.75500 163.000
39.80000 182.000
39.84500 181.000
39.89000 181.000
39.93500 184.000
39.98000 174.000
40.02500 177.000
40.07000 175.000
40.11500 190.000
40.16000 210.000
40.20500 171.000
40.25000 182.000
40.29500 182.000
40.34000 170.000
40.38500 202.000
40.43000 195.000
40.47500 240.000
40.52000 249.000
40.56500 243.000
40.61000 181.000
40.65500 180.000
40.70000 199.000
40.74500 192.000
40.79000 192.000
40.83500 182.000
40.88000 172.000
40.92500 192.000
40.97000 184.000
41.01500 196.000
41.06000 206.000
41.10500 199.000
41.15000 186.000
41.19500 191.000
41.24000 200.000
41.28500 191.000
41.33000 171.000
41.37500 203.000
41.42000 190.000
41.46500 187.000
41.51000 206.000
41.55500 189.000
41.60000 180.000
41.64500 191.000
41.69000 179.000
41.73500 178.000
41.78000 181.000
41.82500 188.000
41.87000 167.000
41.91500 168.000
41.96000 177.000
42.00500 191.000
42.05000 180.000
42.09500 187.000
42.14000 184.000
42.18500 196.000
42.23000 179.000
42.27500 200.000
42.32000 210.000
42.36500 185.000
42.41000 189.000
42.45500 184.000
42.50000 197.000
42.54500 206.000
42.59000 192.000
42.63500 224.000
42.68000 203.000
42.72500 184.000
42.77000 209.000
42.81500 200.000
42.86000 200.000
42.90500 204.000
42.95000 198.000
42.99500 214.000
43.04000 212.000
43.08500 209.000
43.13000 199.000
43.17500 221.000
43.22000 187.000
43.26500 192.000
43.31000 207.000
43.35500 185.000
43.40000 194.000
43.44500 180.000
43.49000 193.000
43.53500 199.000
43.58000 182.000
43.62500 205.000
43.67000 187.000
43.71500 177.000
43.76000 180.000
43.80500 171.000
43.85000 183.000
43.89500 182.000
43.94000 199.000
43.98500 197.000
44.03000 187.000
44.07500 204.000
44.12000 198.000
44.16500 186.000
44.21000 193.000
44.25500 209.000
44.30000 186.000
44.34500 188.000
44.39000 188.000
44.43500 202.000
44.48000 204.000
44.52500 180.000
44.57000 190.000
44.61500 184.000
44.66000 188.000
44.70500 195.000
44.75000 178.000
44.79500 191.000
44.84000 183.000
44.88500 191.000
44.93000 173.000
44.97500 189.000
45.02000 180.000
45.06500 205.000
45.11000 185.000
45.15500 192.000
45.20000 191.000
45.24500 209.000
45.29000 199.000
45.33500 198.000
45.38000 181.000
45.42500 198.000
45.47000 193.000
45.51500 209.000
45.56000 193.000
45.60500 205.000
45.65000 196.000
45.69500 171.000
45.74000 179.000
45.78500 181.000
45.83000 181.000
45.87500 185.000
45.92000 176.000
45.96500 200.000
46.01000 187.000
46.05500 186.000
46.10000 202.000
46.14500 180.000
46.19000 174.000
46.23500 171.000
46.28000 183.000
46.32500 163.000
46.37000 185.000
46.41500 182.000
46.46000 187.000
46.50500 186.000
46.55000 173.000
46.59500 168.000
46.64000 176.000
46.68500 186.000
46.73000 172.000
46.77500 185.000
46.82000 175.000
46.86500 173.000
46.91000 182.000
46.95500 180.000
47.00000 164.000
47.04500 168.000
47.09000 167.000
47.13500 163.000
47.18000 159.000
47.22500 179.000
47.27000 160.000
47.31500 171.000
47.36000 171.000
47.40500 159.000
47.45000 151.000
47.49500 167.000
47.54000 161.000
47.58500 170.000
47.63000 157.000
47.67500 159.000
47.72000 152.000
47.76500 158.000
47.81000 156.000
47.85500 173.000
47.90000 148.000
47.94500 152.000
47.99000 165.000
48.03500 168.000
48.08000 160.000
48.12500 164.000
48.17000 156.000
48.21500 157.000
48.26000 157.000
48.30500 163.000
48.35000 152.000
48.39500 153.000
48.44000 164.000
48.48500 174.000
48.53000 162.000
48.57500 148.000
48.62000 161.000
48.66500 146.000
48.71000 161.000
48.75500 165.000
48.80000 160.000
48.84500 157.000
48.89000 170.000
48.93500 164.000
48.98000 171.000
49.02500 157.000
49.07000 174.000
49.11500 158.000
49.16000 157.000
49.20500 159.000
49.25000 178.000
49.29500 160.000
49.34000 178.000
49.38500 170.000
49.43000 175.000
49.47500 146.000
49.52000 172.000
49.56500 157.000
49.61000 146.000
49.65500 156.000
49.70000 148.000
49.74500 161.000
49.79000 136.000
49.83500 147.000
49.88000 139.000
49.92500 155.000
49.97000 132.000
50.01500 140.000
50.06000 170.000
50.10500 157.000
50.15000 157.000
50.19500 165.000
50.24000 152.000
50.28500 133.000
50.33000 151.000
50.37500 133.000
50.42000 163.000
50.46500 139.000
50.51000 146.000
50.55500 163.000
50.60000 161.000
50.64500 182.000
50.69000 154.000
50.73500 167.000
50.78000 143.000
50.82500 162.000
50.87000 152.000
50.91500 152.000
50.96000 160.000
51.00500 154.000
51.05000 154.000
51.09500 158.000
51.14000 156.000
51.18500 160.000
51.23000 154.000
51.27500 165.000
51.32000 164.000
51.36500 173.000
51.41000 147.000
51.45500 159.000
51.50000 149.000
51.54500 146.000
51.59000 154.000
51.63500 133.000
51.68000 145.000
51.72500 163.000
51.77000 159.000
51.81500 167.000
51.86000 157.000
51.90500 132.000
51.95000 150.000
51.99500 178.000
52.04000 170.000
52.08500 162.000
52.13000 142.000
52.17500 150.000
52.22000 164.000
52.26500 155.000
52.31000 143.000
52.35500 157.000
52.40000 179.000
52.44500 149.000
52.49000 184.000
52.53500 167.000
52.58000 168.000
52.62500 150.000
52.67000 160.000
52.71500 133.000
52.76000 138.000
52.80500 156.000
52.85000 145.000
52.89500 138.000
52.94000 152.000
52.98500 139.000
53.03000 128.000
53.07500 150.000
53.12000 150.000
53.16500 154.000
53.21000 156.000
53.25500 138.000
53.30000 158.000
53.34500 142.000
53.39000 153.000
53.43500 146.000
53.48000 156.000
53.52500 163.000
53.57000 146.000
53.61500 131.000
53.66000 150.000
53.70500 149.000
53.75000 155.000
53.79500 156.000
53.84000 139.000
53.88500 145.000
53.93000 147.000
53.97500 173.000
54.02000 156.000
54.06500 156.000
54.11000 165.000
54.15500 161.000
54.20000 151.000
54.24500 147.000
54.29000 156.000
54.33500 144.000
54.38000 137.000
54.42500 158.000
54.47000 153.000
54.51500 161.000
54.56000 143.000
54.60500 154.000
54.65000 138.000
54.69500 165.000
54.74000 142.000
54.78500 144.000
54.83000 134.000
54.87500 142.000
54.92000 161.000
54.96500 124.000
55.01000 136.000
55.05500 141.000
55.10000 164.000
55.14500 150.000
55.19000 139.000
55.23500 124.000
55.28000 138.000
55.32500 159.000
55.37000 142.000
55.41500 128.000
55.46000 130.000
55.50500 154.000
55.55000 129.000
55.59500 138.000
55.64000 148.000
55.68500 152.000
55.73000 142.000
55.77500 142.000
55.82000 143.000
55.86500 147.000
55.91000 153.000
55.95500 143.000
56.00000 154.000
56.04500 169.000
56.09000 172.000
56.13500 138.000
56.18000 161.000
56.22500 141.000
56.27000 143.000
56.31500 129.000
56.36000 149.000
56.40500 146.000
56.45000 136.000
56.49500 147.000
56.54000 138.000
56.58500 146.000
56.63000 143.000
56.67500 141.000
56.72000 141.000
56.76500 154.000
56.81000 143.000
56.85500 152.000
56.90000 169.000
56.94500 142.000
56.99000 181.000
57.03500 175.000
57.08000 169.000
57.12500 163.000
57.17000 169.000
57.21500 159.000
57.26000 157.000
57.30500 165.000
57.35000 171.000
57.39500 185.000
57.44000 180.000
57.48500 164.000
57.53000 153.000
57.57500 166.000
57.62000 186.000
57.66500 140.000
57.71000 163.000
57.75500 162.000
57.80000 154.000
57.84500 173.000
57.89000 159.000
57.93500 174.000
57.98000 151.000
58.02500 149.000
58.07000 150.000
58.11500 177.000
58.16000 170.000
58.20500 153.000
58.25000 149.000
58.29500 145.000
58.34000 147.000
58.38500 141.000
58.43000 139.000
58.47500 147.000
58.52000 109.000
58.56500 140.000
58.61000 141.000
58.65500 136.000
58.70000 140.000
58.74500 133.000
58.79000 129.000
58.83500 147.000
58.88000 145.000
58.92500 135.000
58.97000 132.000
59.01500 146.000
59.06000 139.000
59.10500 117.000
59.15000 143.000
59.19500 124.000
59.24000 121.000
59.28500 122.000
59.33000 126.000
59.37500 134.000
59.42000 130.000
59.46500 118.000
59.51000 133.000
59.55500 128.000
59.60000 137.000
59.64500 123.000
59.69000 142.000
59.73500 130.000
59.78000 125.000
59.82500 119.000
59.87000 119.000
59.91500 134.000
59.96000 112.000
60.00500 127.000
60.05000 101.000
60.09500 104.000
60.14000 122.000
60.18500 132.000
60.23000 137.000
60.27500 117.000
60.32000 129.000
60.36500 124.000
60.41000 114.000
60.45500 116.000
60.50000 117.000
60.54500 119.000
60.59000 119.000
60.63500 122.000
60.68000 117.000
60.72500 132.000
60.77000 114.000
60.81500 132.000
60.86000 117.000
60.90500 120.000
60.95000 113.000
60.99500 114.000
61.04000 120.000
61.08500 129.000
61.13000 125.000
61.17500 106.000
61.22000 113.000
61.26500 131.000
61.31000 137.000
61.35500 114.000
61.40000 115.000
61.44500 125.000
61.49000 117.000
61.53500 120.000
61.58000 119.000
61.62500 108.000
61.67000 121.000
61.71500 119.000
61.76000 113.000
61.80500 109.000
61.85000 111.000
61.89500 122.000
61.94000 113.000
61.98500 119.000