File: ISoD/xrd_data/HSC010.xy
2.00000 565.000
2.04500 572.000
2.09000 532.000
2.13500 461.000
2.18000 476.000
2.22500 451.000
2.27000 404.000
2.31500 381.000
2.36000 373.000
2.40500 354.000
2.45000 332.000
2.49500 331.000
2.54000 319.000
2.58500 288.000
2.63000 281.000
2.67500 277.000
2.72000 256.000
2.76500 274.000
2.81000 256.000
2.85500 257.000
2.90000 263.000
2.94500 249.000
2.99000 228.000
3.03500 242.000
3.08000 228.000
3.12500 227.000
3.17000 197.000
3.21500 256.000
3.26000 221.000
3.30500 200.000
3.35000 197.000
3.39500 202.000
3.44000 183.000
3.48500 219.000
3.53000 223.000
3.57500 192.000
3.62000 176.000
3.66500 214.000
3.71000 183.000
3.75500 200.000
3.80000 198.000
3.84500 189.000
3.89000 214.000
3.93500 210.000
3.98000 179.000
4.02500 188.000
4.07000 186.000
4.11500 202.000
4.16000 180.000
4.20500 195.000
4.25000 181.000
4.29500 186.000
4.34000 195.000
4.38500 182.000
4.43000 176.000
4.47500 198.000
4.52000 192.000
4.56500 195.000
4.61000 196.000
4.65500 171.000
4.70000 189.000
4.74500 182.000
4.79000 167.000
4.83500 183.000
4.88000 178.000
4.92500 173.000
4.97000 196.000
5.01500 171.000
5.06000 171.000
5.10500 167.000
5.15000 156.000
5.19500 178.000
5.24000 200.000
5.28500 179.000
5.33000 173.000
5.37500 176.000
5.42000 172.000
5.46500 171.000
5.51000 201.000
5.55500 182.000
5.60000 186.000
5.64500 175.000
5.69000 180.000
5.73500 176.000
5.78000 180.000
5.82500 186.000
5.87000 200.000
5.91500 232.000
5.96000 235.000
6.00500 289.000
6.05000 308.000
6.09500 398.000
6.14000 510.000
6.18500 352.000
6.23000 250.000
6.27500 194.000
6.32000 209.000
6.36500 194.000
6.41000 171.000
6.45500 184.000
6.50000 178.000
6.54500 179.000
6.59000 175.000
6.63500 184.000
6.68000 162.000
6.72500 189.000
6.77000 166.000
6.81500 179.000
6.86000 183.000
6.90500 156.000
6.95000 201.000
6.99500 189.000
7.04000 192.000
7.08500 197.000
7.13000 163.000
7.17500 176.000
7.22000 171.000
7.26500 198.000
7.31000 171.000
7.35500 178.000
7.40000 204.000
7.44500 173.000
7.49000 157.000
7.53500 184.000
7.58000 203.000
7.62500 176.000
7.67000 174.000
7.71500 184.000
7.76000 174.000
7.80500 176.000
7.85000 165.000
7.89500 167.000
7.94000 177.000
7.98500 179.000
8.03000 176.000
8.07500 184.000
8.12000 168.000
8.16500 175.000
8.21000 183.000
8.25500 174.000
8.30000 184.000
8.34500 185.000
8.39000 165.000
8.43500 189.000
8.48000 182.000
8.52500 184.000
8.57000 179.000
8.61500 184.000
8.66000 166.000
8.70500 170.000
8.75000 173.000
8.79500 153.000
8.84000 177.000
8.88500 181.000
8.93000 174.000
8.97500 184.000
9.02000 179.000
9.06500 164.000
9.11000 193.000
9.15500 177.000
9.20000 174.000
9.24500 168.000
9.29000 185.000
9.33500 177.000
9.38000 175.000
9.42500 174.000
9.47000 187.000
9.51500 184.000
9.56000 166.000
9.60500 182.000
9.65000 162.000
9.69500 163.000
9.74000 179.000
9.78500 176.000
9.83000 172.000
9.87500 184.000
9.92000 191.000
9.96500 186.000
10.01000 187.000
10.05500 181.000
10.10000 165.000
10.14500 183.000
10.19000 177.000
10.23500 189.000
10.28000 185.000
10.32500 187.000
10.37000 179.000
10.41500 192.000
10.46000 174.000
10.50500 181.000
10.55000 207.000
10.59500 199.000
10.64000 186.000
10.68500 186.000
10.73000 186.000
10.77500 171.000
10.82000 192.000
10.86500 180.000
10.91000 185.000
10.95500 208.000
11.00000 192.000
11.04500 181.000
11.09000 199.000
11.13500 187.000
11.18000 196.000
11.22500 211.000
11.27000 186.000
11.31500 196.000
11.36000 190.000
11.40500 196.000
11.45000 174.000
11.49500 176.000
11.54000 197.000
11.58500 189.000
11.63000 184.000
11.67500 190.000
11.72000 203.000
11.76500 183.000
11.81000 219.000
11.85500 209.000
11.90000 197.000
11.94500 235.000
11.99000 225.000
12.03500 286.000
12.08000 326.000
12.12500 459.000
12.17000 628.000
12.21500 901.000
12.26000 1129.000
12.30500 1280.000
12.35000 879.000
12.39500 396.000
12.44000 323.000
12.48500 298.000
12.53000 272.000
12.57500 269.000
12.62000 276.000
12.66500 265.000
12.71000 267.000
12.75500 260.000
12.80000 256.000
12.84500 266.000
12.89000 278.000
12.93500 268.000
12.98000 253.000
13.02500 246.000
13.07000 250.000
13.11500 245.000
13.16000 269.000
13.20500 267.000
13.25000 277.000
13.29500 308.000
13.34000 349.000
13.38500 375.000
13.43000 416.000
13.47500 310.000
13.52000 273.000
13.56500 255.000
13.61000 263.000
13.65500 247.000
13.70000 266.000
13.74500 234.000
13.79000 219.000
13.83500 223.000
13.88000 209.000
13.92500 223.000
13.97000 233.000
14.01500 202.000
14.06000 216.000
14.10500 225.000
14.15000 214.000
14.19500 225.000
14.24000 229.000
14.28500 212.000
14.33000 219.000
14.37500 222.000
14.42000 209.000
14.46500 213.000
14.51000 216.000
14.55500 207.000
14.60000 214.000
14.64500 220.000
14.69000 210.000
14.73500 198.000
14.78000 231.000
14.82500 199.000
14.87000 210.000
14.91500 217.000
14.96000 235.000
15.00500 217.000
15.05000 208.000
15.09500 212.000
15.14000 230.000
15.18500 215.000
15.23000 217.000
15.27500 206.000
15.32000 218.000
15.36500 191.000
15.41000 221.000
15.45500 209.000
15.50000 194.000
15.54500 208.000
15.59000 210.000
15.63500 216.000
15.68000 234.000
15.72500 219.000
15.77000 205.000
15.81500 184.000
15.86000 235.000
15.90500 219.000
15.95000 205.000
15.99500 233.000
16.04000 218.000
16.08500 216.000
16.13000 188.000
16.17500 201.000
16.22000 222.000
16.26500 244.000
16.31000 238.000
16.35500 215.000
16.40000 256.000
16.44500 251.000
16.49000 260.000
16.53500 252.000
16.58000 234.000
16.62500 231.000
16.67000 239.000
16.71500 214.000
16.76000 231.000
16.80500 237.000
16.85000 225.000
16.89500 254.000
16.94000 227.000
16.98500 230.000
17.03000 226.000
17.07500 224.000
17.12000 258.000
17.16500 227.000
17.21000 215.000
17.25500 222.000
17.30000 241.000
17.34500 221.000
17.39000 231.000
17.43500 218.000
17.48000 231.000
17.52500 230.000
17.57000 234.000
17.61500 222.000
17.66000 268.000
17.70500 212.000
17.75000 237.000
17.79500 260.000
17.84000 233.000
17.88500 255.000
17.93000 220.000
17.97500 244.000
18.02000 275.000
18.06500 280.000
18.11000 302.000
18.15500 270.000
18.20000 238.000
18.24500 242.000
18.29000 237.000
18.33500 249.000
18.38000 261.000
18.42500 260.000
18.47000 273.000
18.51500 274.000
18.56000 289.000
18.60500 228.000
18.65000 245.000
18.69500 261.000
18.74000 246.000
18.78500 258.000
18.83000 264.000
18.87500 251.000
18.92000 248.000
18.96500 234.000
19.01000 247.000
19.05500 249.000
19.10000 232.000
19.14500 256.000
19.19000 251.000
19.23500 231.000
19.28000 266.000
19.32500 272.000
19.37000 296.000
19.41500 261.000
19.46000 305.000
19.50500 321.000
19.55000 287.000
19.59500 302.000
19.64000 314.000
19.68500 248.000
19.73000 260.000
19.77500 281.000
19.82000 261.000
19.86500 253.000
19.91000 239.000
19.95500 241.000
20.00000 260.000
20.04500 262.000
20.09000 258.000
20.13500 263.000
20.18000 233.000
20.22500 256.000
20.27000 255.000
20.31500 250.000
20.36000 250.000
20.40500 255.000
20.45000 233.000
20.49500 237.000
20.54000 258.000
20.58500 264.000
20.63000 262.000
20.67500 264.000
20.72000 254.000
20.76500 263.000
20.81000 269.000
20.85500 249.000
20.90000 251.000
20.94500 263.000
20.99000 254.000
21.03500 270.000
21.08000 266.000
21.12500 268.000
21.17000 249.000
21.21500 260.000
21.26000 262.000
21.30500 294.000
21.35000 249.000
21.39500 275.000
21.44000 264.000
21.48500 269.000
21.53000 273.000
21.57500 283.000
21.62000 280.000
21.66500 290.000
21.71000 275.000
21.75500 260.000
21.80000 266.000
21.84500 275.000
21.89000 259.000
21.93500 288.000
21.98000 284.000
22.02500 279.000
22.07000 290.000
22.11500 303.000
22.16000 306.000
22.20500 296.000
22.25000 268.000
22.29500 269.000
22.34000 277.000
22.38500 281.000
22.43000 252.000
22.47500 281.000
22.52000 282.000
22.56500 267.000
22.61000 286.000
22.65500 281.000
22.70000 276.000
22.74500 257.000
22.79000 272.000
22.83500 293.000
22.88000 282.000
22.92500 266.000
22.97000 277.000
23.01500 279.000
23.06000 297.000
23.10500 280.000
23.15000 268.000
23.19500 294.000
23.24000 303.000
23.28500 302.000
23.33000 269.000
23.37500 286.000
23.42000 303.000
23.46500 296.000
23.51000 285.000
23.55500 292.000
23.60000 286.000
23.64500 269.000
23.69000 301.000
23.73500 305.000
23.78000 287.000
23.82500 252.000
23.87000 278.000
23.91500 264.000
23.96000 262.000
24.00500 261.000
24.05000 291.000
24.09500 304.000
24.14000 288.000
24.18500 266.000
24.23000 271.000
24.27500 249.000
24.32000 270.000
24.36500 270.000
24.41000 264.000
24.45500 301.000
24.50000 272.000
24.54500 304.000
24.59000 288.000
24.63500 284.000
24.68000 307.000
24.72500 323.000
24.77000 329.000
24.81500 328.000
24.86000 320.000
24.90500 306.000
24.95000 297.000
24.99500 312.000
25.04000 295.000
25.08500 283.000
25.13000 326.000
25.17500 313.000
25.22000 353.000
25.26500 312.000
25.31000 316.000
25.35500 333.000
25.40000 325.000
25.44500 337.000
25.49000 315.000
25.53500 324.000
25.58000 345.000
25.62500 322.000
25.67000 338.000
25.71500 406.000
25.76000 488.000
25.80500 493.000
25.85000 489.000
25.89500 419.000
25.94000 385.000
25.98500 364.000
26.03000 408.000
26.07500 372.000
26.12000 405.000
26.16500 420.000
26.21000 432.000
26.25500 525.000
26.30000 563.000
26.34500 580.000
26.39000 513.000
26.43500 525.000
26.48000 492.000
26.52500 471.000
26.57000 494.000
26.61500 502.000
26.66000 504.000
26.70500 514.000
26.75000 583.000
26.79500 561.000
26.84000 599.000
26.88500 557.000
26.93000 552.000
26.97500 610.000
27.02000 666.000
27.06500 669.000
27.11000 740.000
27.15500 786.000
27.20000 790.000
27.24500 687.000
27.29000 742.000
27.33500 721.000
27.38000 669.000
27.42500 702.000
27.47000 673.000
27.51500 706.000
27.56000 760.000
27.60500 689.000
27.65000 683.000
27.69500 818.000
27.74000 778.000
27.78500 837.000
27.83000 818.000
27.87500 740.000
27.92000 663.000
27.96500 572.000
28.01000 515.000
28.05500 504.000
28.10000 449.000
28.14500 428.000
28.19000 406.000
28.23500 387.000
28.28000 374.000
28.32500 389.000
28.37000 353.000
28.41500 361.000
28.46000 311.000
28.50500 326.000
28.55000 317.000
28.59500 311.000
28.64000 312.000
28.68500 307.000
28.73000 290.000
28.77500 326.000
28.82000 307.000
28.86500 307.000
28.91000 311.000
28.95500 292.000
29.00000 298.000
29.04500 277.000
29.09000 276.000
29.13500 248.000
29.18000 296.000
29.22500 287.000
29.27000 243.000
29.31500 258.000
29.36000 267.000
29.40500 248.000
29.45000 247.000
29.49500 246.000
29.54000 265.000
29.58500 245.000
29.63000 256.000
29.67500 245.000
29.72000 246.000
29.76500 241.000
29.81000 239.000
29.85500 253.000
29.90000 256.000
29.94500 247.000
29.99000 261.000
30.03500 262.000
30.08000 264.000
30.12500 238.000
30.17000 248.000
30.21500 245.000
30.26000 201.000
30.30500 228.000
30.35000 254.000
30.39500 219.000
30.44000 225.000
30.48500 227.000
30.53000 222.000
30.57500 231.000
30.62000 232.000
30.66500 247.000
30.71000 254.000
30.75500 248.000
30.80000 262.000
30.84500 242.000
30.89000 236.000
30.93500 261.000
30.98000 251.000
31.02500 264.000
31.07000 282.000
31.11500 315.000
31.16000 272.000
31.20500 229.000
31.25000 224.000
31.29500 236.000
31.34000 230.000
31.38500 219.000
31.43000 221.000
31.47500 227.000
31.52000 209.000
31.56500 217.000
31.61000 216.000
31.65500 201.000
31.70000 212.000
31.74500 221.000
31.79000 173.000
31.83500 215.000
31.88000 209.000
31.92500 187.000
31.97000 200.000
32.01500 190.000
32.06000 187.000
32.10500 193.000
32.15000 189.000
32.19500 189.000
32.24000 188.000
32.28500 196.000
32.33000 176.000
32.37500 177.000
32.42000 182.000
32.46500 181.000
32.51000 182.000
32.55500 168.000
32.60000 170.000
32.64500 174.000
32.69000 149.000
32.73500 189.000
32.78000 151.000
32.82500 178.000
32.87000 161.000
32.91500 205.000
32.96000 181.000
33.00500 156.000
33.05000 187.000
33.09500 170.000
33.14000 161.000
33.18500 179.000
33.23000 166.000
33.27500 186.000
33.32000 173.000
33.36500 177.000
33.41000 172.000
33.45500 179.000
33.50000 165.000
33.54500 181.000
33.59000 166.000
33.63500 189.000
33.68000 173.000
33.72500 173.000
33.77000 184.000
33.81500 169.000
33.86000 176.000
33.90500 185.000
33.95000 182.000
33.99500 168.000
34.04000 174.000
34.08500 168.000
34.13000 169.000
34.17500 158.000
34.22000 156.000
34.26500 158.000
34.31000 153.000
34.35500 158.000
34.40000 168.000
34.44500 159.000
34.49000 177.000
34.53500 152.000
34.58000 155.000
34.62500 162.000
34.67000 177.000
34.71500 162.000
34.76000 151.000
34.80500 152.000
34.85000 146.000
34.89500 143.000
34.94000 166.000
34.98500 137.000
35.03000 151.000
35.07500 172.000
35.12000 139.000
35.16500 140.000
35.21000 137.000
35.25500 159.000
35.30000 137.000
35.34500 139.000
35.39000 149.000
35.43500 157.000
35.48000 123.000
35.52500 138.000
35.57000 149.000
35.61500 140.000
35.66000 153.000
35.70500 147.000
35.75000 131.000
35.79500 133.000
35.84000 157.000
35.88500 134.000
35.93000 123.000
35.97500 145.000
36.02000 133.000
36.06500 127.000
36.11000 144.000
36.15500 141.000
36.20000 136.000
36.24500 137.000
36.29000 132.000
36.33500 137.000
36.38000 120.000
36.42500 144.000
36.47000 128.000
36.51500 124.000
36.56000 129.000
36.60500 130.000
36.65000 119.000
36.69500 134.000
36.74000 142.000
36.78500 120.000
36.83000 121.000
36.87500 118.000
36.92000 128.000
36.96500 120.000
37.01000 133.000
37.05500 128.000
37.10000 136.000
37.14500 125.000
37.19000 141.000
37.23500 127.000
37.28000 127.000
37.32500 108.000
37.37000 121.000
37.41500 135.000
37.46000 132.000
37.50500 140.000
37.55000 142.000
37.59500 137.000
37.64000 146.000
37.68500 108.000
37.73000 140.000
37.77500 118.000
37.82000 109.000
37.86500 118.000
37.91000 113.000
37.95500 138.000
38.00000 137.000
38.04500 123.000
38.09000 136.000
38.13500 120.000
38.18000 108.000
38.22500 113.000
38.27000 122.000
38.31500 116.000
38.36000 141.000
38.40500 143.000
38.45000 121.000
38.49500 127.000
38.54000 112.000
38.58500 114.000
38.63000 118.000
38.67500 121.000
38.72000 131.000
38.76500 116.000
38.81000 117.000
38.85500 123.000
38.90000 112.000
38.94500 117.000
38.99000 110.000
39.03500 111.000
39.08000 113.000
39.12500 119.000
39.17000 129.000
39.21500 104.000
39.26000 119.000
39.30500 110.000
39.35000 120.000
39.39500 128.000
39.44000 107.000
39.48500 108.000
39.53000 131.000
39.57500 125.000
39.62000 123.000
39.66500 110.000
39.71000 100.000
39.75500 130.000
39.80000 123.000
39.84500 118.000
39.89000 117.000
39.93500 125.000
39.98000 117.000
40.02500 111.000
40.07000 107.000
40.11500 119.000
40.16000 123.000
40.20500 138.000
40.25000 131.000
40.29500 128.000
40.34000 137.000
40.38500 117.000
40.43000 121.000
40.47500 136.000
40.52000 135.000
40.56500 136.000
40.61000 135.000
40.65500 126.000
40.70000 111.000
40.74500 122.000
40.79000 130.000
40.83500 123.000
40.88000 132.000
40.92500 122.000
40.97000 130.000
41.01500 136.000
41.06000 119.000
41.10500 127.000
41.15000 154.000
41.19500 127.000
41.24000 124.000
41.28500 126.000
41.33000 126.000
41.37500 120.000
41.42000 149.000
41.46500 118.000
41.51000 107.000
41.55500 113.000
41.60000 121.000
41.64500 104.000
41.69000 122.000
41.73500 110.000
41.78000 118.000
41.82500 116.000
41.87000 127.000
41.91500 126.000
41.96000 132.000
42.00500 122.000
42.05000 102.000
42.09500 116.000
42.14000 119.000
42.18500 108.000
42.23000 115.000
42.27500 121.000
42.32000 135.000
42.36500 109.000
42.41000 121.000
42.45500 103.000
42.50000 124.000
42.54500 123.000
42.59000 124.000
42.63500 116.000
42.68000 116.000
42.72500 151.000
42.77000 124.000
42.81500 127.000
42.86000 132.000
42.90500 108.000
42.95000 107.000
42.99500 122.000
43.04000 129.000
43.08500 126.000
43.13000 117.000
43.17500 130.000
43.22000 125.000
43.26500 115.000
43.31000 128.000
43.35500 101.000
43.40000 117.000
43.44500 109.000
43.49000 105.000
43.53500 119.000
43.58000 107.000
43.62500 121.000
43.67000 118.000
43.71500 116.000
43.76000 125.000
43.80500 119.000
43.85000 122.000
43.89500 112.000
43.94000 126.000
43.98500 111.000
44.03000 123.000
44.07500 135.000
44.12000 118.000
44.16500 125.000
44.21000 131.000
44.25500 121.000
44.30000 108.000
44.34500 134.000
44.39000 140.000
44.43500 137.000
44.48000 125.000
44.52500 107.000
44.57000 134.000
44.61500 134.000
44.66000 117.000
44.70500 104.000
44.75000 115.000
44.79500 121.000
44.84000 124.000
44.88500 119.000
44.93000 118.000
44.97500 109.000
45.02000 118.000
45.06500 122.000
45.11000 123.000
45.15500 101.000
45.20000 100.000
45.24500 111.000
45.29000 125.000
45.33500 113.000
45.38000 96.000
45.42500 117.000
45.47000 93.000
45.51500 113.000
45.56000 123.000
45.60500 105.000
45.65000 115.000
45.69500 109.000
45.74000 129.000
45.78500 128.000
45.83000 109.000
45.87500 100.000
45.92000 109.000
45.96500 117.000
46.01000 110.000
46.05500 108.000
46.10000 99.000
46.14500 119.000
46.19000 132.000
46.23500 117.000
46.28000 105.000
46.32500 105.000
46.37000 116.000
46.41500 100.000
46.46000 121.000
46.50500 110.000
46.55000 110.000
46.59500 109.000
46.64000 111.000
46.68500 123.000
46.73000 121.000
46.77500 112.000
46.82000 124.000
46.86500 111.000
46.91000 115.000
46.95500 126.000
47.00000 116.000
47.04500 118.000
47.09000 104.000
47.13500 106.000
47.18000 112.000
47.22500 115.000
47.27000 110.000
47.31500 84.000
47.36000 113.000
47.40500 109.000
47.45000 102.000
47.49500 129.000
47.54000 112.000
47.58500 104.000
47.63000 102.000
47.67500 108.000
47.72000 109.000
47.76500 112.000
47.81000 95.000
47.85500 122.000
47.90000 100.000
47.94500 122.000
47.99000 100.000
48.03500 101.000
48.08000 98.000
48.12500 94.000
48.17000 114.000
48.21500 104.000
48.26000 100.000
48.30500 101.000
48.35000 97.000
48.39500 101.000
48.44000 90.000
48.48500 96.000
48.53000 102.000
48.57500 102.000
48.62000 99.000
48.66500 119.000
48.71000 103.000
48.75500 110.000
48.80000 89.000
48.84500 85.000
48.89000 109.000
48.93500 86.000
48.98000 87.000
49.02500 116.000
49.07000 110.000
49.11500 108.000
49.16000 103.000
49.20500 104.000
49.25000 111.000
49.29500 107.000
49.34000 116.000
49.38500 104.000
49.43000 111.000
49.47500 97.000
49.52000 109.000
49.56500 96.000
49.61000 111.000
49.65500 106.000
49.70000 98.000
49.74500 100.000
49.79000 97.000
49.83500 105.000
49.88000 105.000
49.92500 89.000
49.97000 109.000
50.01500 103.000
50.06000 125.000
50.10500 105.000
50.15000 99.000
50.19500 122.000
50.24000 106.000
50.28500 98.000
50.33000 93.000
50.37500 101.000
50.42000 102.000
50.46500 93.000
50.51000 120.000
50.55500 92.000
50.60000 87.000
50.64500 114.000
50.69000 102.000
50.73500 92.000
50.78000 96.000
50.82500 101.000
50.87000 87.000
50.91500 108.000
50.96000 90.000
51.00500 97.000
51.05000 105.000
51.09500 91.000
51.14000 100.000
51.18500 105.000
51.23000 110.000
51.27500 87.000
51.32000 104.000
51.36500 99.000
51.41000 110.000
51.45500 106.000
51.50000 96.000
51.54500 102.000
51.59000 85.000
51.63500 89.000
51.68000 104.000
51.72500 102.000
51.77000 91.000
51.81500 111.000
51.86000 97.000
51.90500 93.000
51.95000 84.000
51.99500 113.000
52.04000 110.000
52.08500 112.000
52.13000 93.000
52.17500 108.000
52.22000 94.000
52.26500 99.000
52.31000 103.000
52.35500 97.000
52.40000 95.000
52.44500 94.000
52.49000 93.000
52.53500 93.000
52.58000 81.000
52.62500 88.000
52.67000 84.000
52.71500 100.000
52.76000 91.000
52.80500 106.000
52.85000 94.000
52.89500 83.000
52.94000 92.000
52.98500 82.000
53.03000 97.000
53.07500 98.000
53.12000 101.000
53.16500 91.000
53.21000 98.000
53.25500 98.000
53.30000 101.000
53.34500 110.000
53.39000 100.000
53.43500 113.000
53.48000 85.000
53.52500 104.000
53.57000 95.000
53.61500 104.000
53.66000 97.000
53.70500 106.000
53.75000 94.000
53.79500 96.000
53.84000 86.000
53.88500 104.000
53.93000 108.000
53.97500 89.000
54.02000 105.000
54.06500 106.000
54.11000 99.000
54.15500 104.000
54.20000 106.000
54.24500 91.000
54.29000 96.000
54.33500 102.000
54.38000 99.000
54.42500 99.000
54.47000 86.000
54.51500 89.000
54.56000 109.000
54.60500 111.000
54.65000 96.000
54.69500 94.000
54.74000 101.000
54.78500 113.000
54.83000 110.000
54.87500 90.000
54.92000 96.000
54.96500 91.000
55.01000 111.000
55.05500 111.000
55.10000 96.000
55.14500 93.000
55.19000 104.000
55.23500 104.000
55.28000 105.000
55.32500 86.000
55.37000 103.000
55.41500 97.000
55.46000 104.000
55.50500 81.000
55.55000 102.000
55.59500 103.000
55.64000 93.000
55.68500 93.000
55.73000 93.000
55.77500 106.000
55.82000 89.000
55.86500 89.000
55.91000 109.000
55.95500 98.000
56.00000 83.000
56.04500 91.000
56.09000 93.000
56.13500 99.000
56.18000 109.000
56.22500 92.000
56.27000 97.000
56.31500 102.000
56.36000 99.000
56.40500 89.000
56.45000 99.000
56.49500 95.000
56.54000 108.000
56.58500 121.000
56.63000 96.000
56.67500 108.000
56.72000 95.000
56.76500 94.000
56.81000 92.000
56.85500 105.000
56.90000 87.000
56.94500 109.000
56.99000 103.000
57.03500 109.000
57.08000 88.000
57.12500 106.000
57.17000 87.000
57.21500 87.000
57.26000 98.000
57.30500 105.000
57.35000 92.000
57.39500 108.000
57.44000 94.000
57.48500 107.000
57.53000 95.000
57.57500 92.000
57.62000 93.000
57.66500 87.000
57.71000 92.000
57.75500 103.000
57.80000 82.000
57.84500 103.000
57.89000 93.000
57.93500 90.000
57.98000 102.000
58.02500 88.000
58.07000 81.000
58.11500 80.000
58.16000 77.000
58.20500 83.000
58.25000 84.000
58.29500 83.000
58.34000 90.000
58.38500 88.000
58.43000 90.000
58.47500 84.000
58.52000 102.000
58.56500 87.000
58.61000 88.000
58.65500 90.000
58.70000 80.000
58.74500 73.000
58.79000 79.000
58.83500 81.000
58.88000 82.000
58.92500 76.000
58.97000 86.000
59.01500 93.000
59.06000 84.000
59.10500 88.000
59.15000 87.000
59.19500 87.000
59.24000 80.000
59.28500 73.000
59.33000 94.000
59.37500 94.000
59.42000 106.000
59.46500 82.000
59.51000 87.000
59.55500 85.000
59.60000 81.000
59.64500 85.000
59.69000 80.000
59.73500 78.000
59.78000 73.000
59.82500 84.000
59.87000 92.000
59.91500 90.000
59.96000 101.000
60.00500 79.000
60.05000 79.000
60.09500 97.000
60.14000 84.000
60.18500 81.000
60.23000 72.000
60.27500 93.000
60.32000 81.000
60.36500 74.000
60.41000 81.000
60.45500 81.000
60.50000 77.000
60.54500 69.000
60.59000 86.000
60.63500 84.000
60.68000 88.000
60.72500 87.000
60.77000 81.000
60.81500 85.000
60.86000 75.000
60.90500 85.000
60.95000 89.000
60.99500 73.000
61.04000 78.000
61.08500 70.000
61.13000 83.000
61.17500 72.000
61.22000 79.000
61.26500 77.000
61.31000 81.000
61.35500 79.000
61.40000 70.000
61.44500 73.000
61.49000 78.000
61.53500 89.000
61.58000 80.000
61.62500 66.000
61.67000 75.000
61.71500 79.000
61.76000 73.000
61.80500 86.000
61.85000 89.000
61.89500 77.000
61.94000 75.000
61.98500 88.000