File: ISoD/xrd_data/HSC069.xy
2.00000 5.000
2.04500 3.000
2.09000 2.000
2.13500 2.000
2.18000 3.000
2.22500 2.000
2.27000 2.000
2.31500 1.000
2.36000 4.000
2.40500 4.000
2.45000 1.000
2.49500 5.000
2.54000 4.000
2.58500 4.000
2.63000 4.000
2.67500 3.000
2.72000 4.000
2.76500 3.000
2.81000 3.000
2.85500 2.000
2.90000 2.000
2.94500 3.000
2.99000 3.000
3.03500 6.000
3.08000 6.000
3.12500 3.000
3.17000 17.000
3.21500 37.000
3.26000 136.000
3.30500 245.000
3.35000 346.000
3.39500 381.000
3.44000 412.000
3.48500 393.000
3.53000 385.000
3.57500 388.000
3.62000 359.000
3.66500 366.000
3.71000 357.000
3.75500 364.000
3.80000 347.000
3.84500 352.000
3.89000 370.000
3.93500 338.000
3.98000 339.000
4.02500 396.000
4.07000 368.000
4.11500 346.000
4.16000 339.000
4.20500 337.000
4.25000 350.000
4.29500 367.000
4.34000 356.000
4.38500 368.000
4.43000 350.000
4.47500 339.000
4.52000 348.000
4.56500 365.000
4.61000 358.000
4.65500 369.000
4.70000 364.000
4.74500 348.000
4.79000 375.000
4.83500 339.000
4.88000 347.000
4.92500 347.000
4.97000 361.000
5.01500 373.000
5.06000 395.000
5.10500 376.000
5.15000 367.000
5.19500 367.000
5.24000 404.000
5.28500 360.000
5.33000 363.000
5.37500 409.000
5.42000 393.000
5.46500 380.000
5.51000 364.000
5.55500 399.000
5.60000 352.000
5.64500 382.000
5.69000 408.000
5.73500 409.000
5.78000 371.000
5.82500 382.000
5.87000 426.000
5.91500 379.000
5.96000 397.000
6.00500 367.000
6.05000 393.000
6.09500 374.000
6.14000 350.000
6.18500 376.000
6.23000 430.000
6.27500 413.000
6.32000 419.000
6.36500 384.000
6.41000 385.000
6.45500 382.000
6.50000 397.000
6.54500 399.000
6.59000 392.000
6.63500 411.000
6.68000 387.000
6.72500 416.000
6.77000 413.000
6.81500 409.000
6.86000 386.000
6.90500 399.000
6.95000 394.000
6.99500 375.000
7.04000 415.000
7.08500 395.000
7.13000 427.000
7.17500 436.000
7.22000 407.000
7.26500 406.000
7.31000 411.000
7.35500 426.000
7.40000 394.000
7.44500 392.000
7.49000 414.000
7.53500 408.000
7.58000 421.000
7.62500 420.000
7.67000 444.000
7.71500 409.000
7.76000 427.000
7.80500 421.000
7.85000 400.000
7.89500 439.000
7.94000 425.000
7.98500 407.000
8.03000 436.000
8.07500 451.000
8.12000 450.000
8.16500 445.000
8.21000 447.000
8.25500 424.000
8.30000 395.000
8.34500 436.000
8.39000 444.000
8.43500 423.000
8.48000 451.000
8.52500 419.000
8.57000 420.000
8.61500 424.000
8.66000 397.000
8.70500 429.000
8.75000 416.000
8.79500 425.000
8.84000 423.000
8.88500 459.000
8.93000 418.000
8.97500 443.000
9.02000 442.000
9.06500 433.000
9.11000 453.000
9.15500 458.000
9.20000 463.000
9.24500 431.000
9.29000 447.000
9.33500 404.000
9.38000 453.000
9.42500 447.000
9.47000 453.000
9.51500 452.000
9.56000 440.000
9.60500 460.000
9.65000 427.000
9.69500 444.000
9.74000 436.000
9.78500 445.000
9.83000 462.000
9.87500 447.000
9.92000 422.000
9.96500 422.000
10.01000 440.000
10.05500 419.000
10.10000 463.000
10.14500 430.000
10.19000 466.000
10.23500 419.000
10.28000 435.000
10.32500 425.000
10.37000 408.000
10.41500 459.000
10.46000 429.000
10.50500 430.000
10.55000 448.000
10.59500 467.000
10.64000 427.000
10.68500 410.000
10.73000 446.000
10.77500 425.000
10.82000 429.000
10.86500 453.000
10.91000 447.000
10.95500 456.000
11.00000 441.000
11.04500 421.000
11.09000 428.000
11.13500 440.000
11.18000 461.000
11.22500 472.000
11.27000 406.000
11.31500 431.000
11.36000 430.000
11.40500 439.000
11.45000 453.000
11.49500 440.000
11.54000 429.000
11.58500 460.000
11.63000 446.000
11.67500 459.000
11.72000 457.000
11.76500 452.000
11.81000 482.000
11.85500 466.000
11.90000 448.000
11.94500 453.000
11.99000 426.000
12.03500 466.000
12.08000 469.000
12.12500 470.000
12.17000 447.000
12.21500 435.000
12.26000 434.000
12.30500 440.000
12.35000 426.000
12.39500 421.000
12.44000 431.000
12.48500 408.000
12.53000 470.000
12.57500 441.000
12.62000 440.000
12.66500 485.000
12.71000 420.000
12.75500 445.000
12.80000 459.000
12.84500 415.000
12.89000 439.000
12.93500 424.000
12.98000 434.000
13.02500 416.000
13.07000 432.000
13.11500 467.000
13.16000 473.000
13.20500 458.000
13.25000 463.000
13.29500 436.000
13.34000 418.000
13.38500 426.000
13.43000 423.000
13.47500 424.000
13.52000 458.000
13.56500 440.000
13.61000 403.000
13.65500 480.000
13.70000 450.000
13.74500 463.000
13.79000 415.000
13.83500 441.000
13.88000 447.000
13.92500 441.000
13.97000 425.000
14.01500 421.000
14.06000 424.000
14.10500 448.000
14.15000 411.000
14.19500 441.000
14.24000 435.000
14.28500 430.000
14.33000 447.000
14.37500 457.000
14.42000 456.000
14.46500 425.000
14.51000 418.000
14.55500 442.000
14.60000 431.000
14.64500 446.000
14.69000 452.000
14.73500 464.000
14.78000 432.000
14.82500 462.000
14.87000 476.000
14.91500 462.000
14.96000 466.000
15.00500 426.000
15.05000 430.000
15.09500 464.000
15.14000 437.000
15.18500 409.000
15.23000 443.000
15.27500 433.000
15.32000 425.000
15.36500 438.000
15.41000 423.000
15.45500 449.000
15.50000 457.000
15.54500 469.000
15.59000 410.000
15.63500 474.000
15.68000 442.000
15.72500 444.000
15.77000 433.000
15.81500 456.000
15.86000 446.000
15.90500 475.000
15.95000 451.000
15.99500 466.000
16.04000 463.000
16.08500 471.000
16.13000 433.000
16.17500 456.000
16.22000 505.000
16.26500 459.000
16.31000 449.000
16.35500 459.000
16.40000 472.000
16.44500 436.000
16.49000 430.000
16.53500 447.000
16.58000 447.000
16.62500 427.000
16.67000 429.000
16.71500 459.000
16.76000 462.000
16.80500 465.000
16.85000 475.000
16.89500 448.000
16.94000 462.000
16.98500 497.000
17.03000 443.000
17.07500 448.000
17.12000 450.000
17.16500 478.000
17.21000 470.000
17.25500 455.000
17.30000 467.000
17.34500 464.000
17.39000 490.000
17.43500 458.000
17.48000 478.000
17.52500 462.000
17.57000 455.000
17.61500 461.000
17.66000 501.000
17.70500 451.000
17.75000 466.000
17.79500 491.000
17.84000 445.000
17.88500 475.000
17.93000 464.000
17.97500 455.000
18.02000 445.000
18.06500 473.000
18.11000 455.000
18.15500 447.000
18.20000 458.000
18.24500 487.000
18.29000 483.000
18.33500 485.000
18.38000 441.000
18.42500 485.000
18.47000 499.000
18.51500 473.000
18.56000 457.000
18.60500 458.000
18.65000 447.000
18.69500 514.000
18.74000 494.000
18.78500 476.000
18.83000 482.000
18.87500 492.000
18.92000 479.000
18.96500 486.000
19.01000 491.000
19.05500 495.000
19.10000 486.000
19.14500 499.000
19.19000 496.000
19.23500 513.000
19.28000 488.000
19.32500 480.000
19.37000 479.000
19.41500 516.000
19.46000 486.000
19.50500 486.000
19.55000 475.000
19.59500 473.000
19.64000 453.000
19.68500 487.000
19.73000 481.000
19.77500 495.000
19.82000 530.000
19.86500 471.000
19.91000 481.000
19.95500 516.000
20.00000 492.000
20.04500 514.000
20.09000 525.000
20.13500 454.000
20.18000 474.000
20.22500 463.000
20.27000 480.000
20.31500 479.000
20.36000 511.000
20.40500 501.000
20.45000 505.000
20.49500 500.000
20.54000 511.000
20.58500 499.000
20.63000 479.000
20.67500 492.000
20.72000 491.000
20.76500 486.000
20.81000 496.000
20.85500 484.000
20.90000 519.000
20.94500 485.000
20.99000 525.000
21.03500 536.000
21.08000 459.000
21.12500 525.000
21.17000 503.000
21.21500 488.000
21.26000 509.000
21.30500 545.000
21.35000 521.000
21.39500 493.000
21.44000 524.000
21.48500 536.000
21.53000 511.000
21.57500 531.000
21.62000 522.000
21.66500 485.000
21.71000 528.000
21.75500 522.000
21.80000 496.000
21.84500 492.000
21.89000 515.000
21.93500 526.000
21.98000 545.000
22.02500 516.000
22.07000 511.000
22.11500 525.000
22.16000 514.000
22.20500 502.000
22.25000 501.000
22.29500 527.000
22.34000 536.000
22.38500 568.000
22.43000 521.000
22.47500 567.000
22.52000 533.000
22.56500 530.000
22.61000 527.000
22.65500 557.000
22.70000 520.000
22.74500 481.000
22.79000 515.000
22.83500 552.000
22.88000 529.000
22.92500 560.000
22.97000 534.000
23.01500 530.000
23.06000 530.000
23.10500 576.000
23.15000 544.000
23.19500 550.000
23.24000 550.000
23.28500 515.000
23.33000 543.000
23.37500 523.000
23.42000 513.000
23.46500 541.000
23.51000 516.000
23.55500 526.000
23.60000 532.000
23.64500 547.000
23.69000 551.000
23.73500 531.000
23.78000 543.000
23.82500 547.000
23.87000 530.000
23.91500 581.000
23.96000 558.000
24.00500 539.000
24.05000 555.000
24.09500 559.000
24.14000 532.000
24.18500 488.000
24.23000 556.000
24.27500 516.000
24.32000 553.000
24.36500 543.000
24.41000 566.000
24.45500 575.000
24.50000 584.000
24.54500 531.000
24.59000 568.000
24.63500 554.000
24.68000 576.000
24.72500 580.000
24.77000 571.000
24.81500 567.000
24.86000 564.000
24.90500 591.000
24.95000 577.000
24.99500 622.000
25.04000 607.000
25.08500 589.000
25.13000 568.000
25.17500 612.000
25.22000 587.000
25.26500 575.000
25.31000 561.000
25.35500 596.000
25.40000 616.000
25.44500 616.000
25.49000 617.000
25.53500 612.000
25.58000 600.000
25.62500 619.000
25.67000 647.000
25.71500 625.000
25.76000 600.000
25.80500 592.000
25.85000 619.000
25.89500 663.000
25.94000 599.000
25.98500 659.000
26.03000 634.000
26.07500 630.000
26.12000 688.000
26.16500 664.000
26.21000 612.000
26.25500 719.000
26.30000 660.000
26.34500 689.000
26.39000 677.000
26.43500 670.000
26.48000 699.000
26.52500 715.000
26.57000 726.000
26.61500 689.000
26.66000 691.000
26.70500 702.000
26.75000 698.000
26.79500 730.000
26.84000 711.000
26.88500 714.000
26.93000 734.000
26.97500 733.000
27.02000 686.000
27.06500 732.000
27.11000 743.000
27.15500 726.000
27.20000 765.000
27.24500 700.000
27.29000 739.000
27.33500 703.000
27.38000 729.000
27.42500 756.000
27.47000 750.000
27.51500 725.000
27.56000 712.000
27.60500 738.000
27.65000 723.000
27.69500 697.000
27.74000 656.000
27.78500 724.000
27.83000 656.000
27.87500 659.000
27.92000 659.000
27.96500 658.000
28.01000 635.000
28.05500 662.000
28.10000 630.000
28.14500 630.000
28.19000 613.000
28.23500 615.000
28.28000 622.000
28.32500 611.000
28.37000 588.000
28.41500 578.000
28.46000 553.000
28.50500 592.000
28.55000 524.000
28.59500 539.000
28.64000 504.000
28.68500 550.000
28.73000 537.000
28.77500 478.000
28.82000 516.000
28.86500 506.000
28.91000 529.000
28.95500 479.000
29.00000 533.000
29.04500 514.000
29.09000 499.000
29.13500 511.000
29.18000 493.000
29.22500 489.000
29.27000 470.000
29.31500 527.000
29.36000 538.000
29.40500 615.000
29.45000 537.000
29.49500 476.000
29.54000 484.000
29.58500 453.000
29.63000 466.000
29.67500 417.000
29.72000 459.000
29.76500 460.000
29.81000 447.000
29.85500 450.000
29.90000 452.000
29.94500 435.000
29.99000 455.000
30.03500 429.000
30.08000 440.000
30.12500 428.000
30.17000 457.000
30.21500 421.000
30.26000 404.000
30.30500 438.000
30.35000 405.000
30.39500 459.000
30.44000 426.000
30.48500 397.000
30.53000 402.000
30.57500 410.000
30.62000 403.000
30.66500 413.000
30.71000 419.000
30.75500 417.000
30.80000 411.000
30.84500 430.000
30.89000 390.000
30.93500 408.000
30.98000 386.000
31.02500 417.000
31.07000 414.000
31.11500 430.000
31.16000 402.000
31.20500 405.000
31.25000 379.000
31.29500 391.000
31.34000 397.000
31.38500 386.000
31.43000 380.000
31.47500 420.000
31.52000 376.000
31.56500 368.000
31.61000 369.000
31.65500 369.000
31.70000 364.000
31.74500 362.000
31.79000 367.000
31.83500 329.000
31.88000 371.000
31.92500 376.000
31.97000 344.000
32.01500 378.000
32.06000 364.000
32.10500 361.000
32.15000 373.000
32.19500 349.000
32.24000 347.000
32.28500 353.000
32.33000 346.000
32.37500 340.000
32.42000 341.000
32.46500 372.000
32.51000 344.000
32.55500 340.000
32.60000 353.000
32.64500 346.000
32.69000 352.000
32.73500 336.000
32.78000 320.000
32.82500 350.000
32.87000 317.000
32.91500 326.000
32.96000 346.000
33.00500 352.000
33.05000 329.000
33.09500 333.000
33.14000 317.000
33.18500 312.000
33.23000 334.000
33.27500 304.000
33.32000 327.000
33.36500 308.000
33.41000 326.000
33.45500 325.000
33.50000 317.000
33.54500 308.000
33.59000 314.000
33.63500 297.000
33.68000 305.000
33.72500 340.000
33.77000 312.000
33.81500 310.000
33.86000 355.000
33.90500 344.000
33.95000 281.000
33.99500 325.000
34.04000 314.000
34.08500 313.000
34.13000 318.000
34.17500 311.000
34.22000 324.000
34.26500 303.000
34.31000 307.000
34.35500 317.000
34.40000 304.000
34.44500 313.000
34.49000 301.000
34.53500 330.000
34.58000 295.000
34.62500 290.000
34.67000 302.000
34.71500 307.000
34.76000 310.000
34.80500 301.000
34.85000 282.000
34.89500 300.000
34.94000 295.000
34.98500 285.000
35.03000 282.000
35.07500 295.000
35.12000 305.000
35.16500 280.000
35.21000 299.000
35.25500 303.000
35.30000 263.000
35.34500 281.000
35.39000 286.000
35.43500 292.000
35.48000 263.000
35.52500 294.000
35.57000 256.000
35.61500 271.000
35.66000 267.000
35.70500 264.000
35.75000 249.000
35.79500 249.000
35.84000 284.000
35.88500 261.000
35.93000 292.000
35.97500 289.000
36.02000 266.000
36.06500 277.000
36.11000 276.000
36.15500 275.000
36.20000 258.000
36.24500 237.000
36.29000 287.000
36.33500 271.000
36.38000 243.000
36.42500 245.000
36.47000 259.000
36.51500 257.000
36.56000 264.000
36.60500 243.000
36.65000 255.000
36.69500 239.000
36.74000 263.000
36.78500 262.000
36.83000 260.000
36.87500 252.000
36.92000 239.000
36.96500 242.000
37.01000 265.000
37.05500 255.000
37.10000 263.000
37.14500 248.000
37.19000 256.000
37.23500 256.000
37.28000 275.000
37.32500 249.000
37.37000 228.000
37.41500 235.000
37.46000 250.000
37.50500 236.000
37.55000 248.000
37.59500 240.000
37.64000 247.000
37.68500 256.000
37.73000 240.000
37.77500 228.000
37.82000 238.000
37.86500 212.000
37.91000 231.000
37.95500 243.000
38.00000 257.000
38.04500 254.000
38.09000 251.000
38.13500 242.000
38.18000 233.000
38.22500 256.000
38.27000 217.000
38.31500 236.000
38.36000 220.000
38.40500 245.000
38.45000 245.000
38.49500 239.000
38.54000 217.000
38.58500 242.000
38.63000 248.000
38.67500 232.000
38.72000 212.000
38.76500 232.000
38.81000 229.000
38.85500 250.000
38.90000 213.000
38.94500 246.000
38.99000 224.000
39.03500 222.000
39.08000 234.000
39.12500 225.000
39.17000 217.000
39.21500 233.000
39.26000 210.000
39.30500 224.000
39.35000 247.000
39.39500 236.000
39.44000 243.000
39.48500 222.000
39.53000 232.000
39.57500 233.000
39.62000 227.000
39.66500 217.000
39.71000 227.000
39.75500 228.000
39.80000 223.000
39.84500 222.000
39.89000 227.000
39.93500 230.000
39.98000 223.000
40.02500 201.000
40.07000 217.000
40.11500 211.000
40.16000 229.000
40.20500 237.000
40.25000 233.000
40.29500 219.000
40.34000 221.000
40.38500 221.000
40.43000 213.000
40.47500 225.000
40.52000 223.000
40.56500 192.000
40.61000 223.000
40.65500 211.000
40.70000 236.000
40.74500 223.000
40.79000 241.000
40.83500 243.000
40.88000 221.000
40.92500 228.000
40.97000 230.000
41.01500 217.000
41.06000 228.000
41.10500 212.000
41.15000 240.000
41.19500 213.000
41.24000 224.000
41.28500 207.000
41.33000 222.000
41.37500 226.000
41.42000 225.000
41.46500 206.000
41.51000 236.000
41.55500 207.000
41.60000 216.000
41.64500 203.000
41.69000 208.000
41.73500 212.000
41.78000 218.000
41.82500 232.000
41.87000 193.000
41.91500 220.000
41.96000 209.000
42.00500 207.000
42.05000 227.000
42.09500 218.000
42.14000 191.000
42.18500 211.000
42.23000 215.000
42.27500 229.000
42.32000 227.000
42.36500 217.000
42.41000 217.000
42.45500 204.000
42.50000 199.000
42.54500 236.000
42.59000 220.000
42.63500 214.000
42.68000 226.000
42.72500 215.000
42.77000 201.000
42.81500 211.000
42.86000 215.000
42.90500 204.000
42.95000 213.000
42.99500 194.000
43.04000 169.000
43.08500 241.000
43.13000 221.000
43.17500 219.000
43.22000 221.000
43.26500 198.000
43.31000 223.000
43.35500 207.000
43.40000 222.000
43.44500 211.000
43.49000 218.000
43.53500 214.000
43.58000 213.000
43.62500 224.000
43.67000 194.000
43.71500 220.000
43.76000 220.000
43.80500 204.000
43.85000 223.000
43.89500 192.000
43.94000 189.000
43.98500 223.000
44.03000 205.000
44.07500 210.000
44.12000 198.000
44.16500 190.000
44.21000 199.000
44.25500 212.000
44.30000 231.000
44.34500 233.000
44.39000 222.000
44.43500 200.000
44.48000 197.000
44.52500 210.000
44.57000 209.000
44.61500 203.000
44.66000 223.000
44.70500 190.000
44.75000 204.000
44.79500 193.000
44.84000 188.000
44.88500 199.000
44.93000 213.000
44.97500 206.000
45.02000 198.000
45.06500 199.000
45.11000 210.000
45.15500 221.000
45.20000 226.000
45.24500 196.000
45.29000 194.000
45.33500 208.000
45.38000 207.000
45.42500 191.000
45.47000 205.000
45.51500 212.000
45.56000 180.000
45.60500 205.000
45.65000 208.000
45.69500 216.000
45.74000 193.000
45.78500 193.000
45.83000 186.000
45.87500 192.000
45.92000 190.000
45.96500 177.000
46.01000 216.000
46.05500 206.000
46.10000 219.000
46.14500 189.000
46.19000 193.000
46.23500 201.000
46.28000 202.000
46.32500 197.000
46.37000 203.000
46.41500 202.000
46.46000 187.000
46.50500 190.000
46.55000 210.000
46.59500 180.000
46.64000 193.000
46.68500 199.000
46.73000 209.000
46.77500 187.000
46.82000 186.000
46.86500 175.000
46.91000 187.000
46.95500 199.000
47.00000 187.000
47.04500 199.000
47.09000 205.000
47.13500 186.000
47.18000 203.000
47.22500 211.000
47.27000 178.000
47.31500 170.000
47.36000 172.000
47.40500 186.000
47.45000 204.000
47.49500 216.000
47.54000 207.000
47.58500 175.000
47.63000 193.000
47.67500 171.000
47.72000 195.000
47.76500 174.000
47.81000 160.000
47.85500 193.000
47.90000 200.000
47.94500 186.000
47.99000 174.000
48.03500 195.000
48.08000 194.000
48.12500 188.000
48.17000 208.000
48.21500 167.000
48.26000 168.000
48.30500 187.000
48.35000 187.000
48.39500 172.000
48.44000 174.000
48.48500 173.000
48.53000 217.000
48.57500 182.000
48.62000 189.000
48.66500 182.000
48.71000 183.000
48.75500 178.000
48.80000 192.000
48.84500 177.000
48.89000 175.000
48.93500 181.000
48.98000 184.000
49.02500 165.000
49.07000 179.000
49.11500 180.000
49.16000 191.000
49.20500 174.000
49.25000 158.000
49.29500 174.000
49.34000 170.000
49.38500 173.000
49.43000 172.000
49.47500 170.000
49.52000 172.000
49.56500 175.000
49.61000 158.000
49.65500 156.000
49.70000 194.000
49.74500 175.000
49.79000 157.000
49.83500 171.000
49.88000 179.000
49.92500 156.000
49.97000 175.000
50.01500 182.000
50.06000 178.000
50.10500 166.000
50.15000 163.000
50.19500 155.000
50.24000 155.000
50.28500 186.000
50.33000 151.000
50.37500 151.000
50.42000 182.000
50.46500 176.000
50.51000 165.000
50.55500 157.000
50.60000 178.000
50.64500 155.000
50.69000 163.000
50.73500 168.000
50.78000 158.000
50.82500 153.000
50.87000 169.000
50.91500 180.000
50.96000 185.000
51.00500 156.000
51.05000 157.000
51.09500 163.000
51.14000 171.000
51.18500 176.000
51.23000 148.000
51.27500 168.000
51.32000 170.000
51.36500 158.000
51.41000 168.000
51.45500 167.000
51.50000 154.000
51.54500 168.000
51.59000 168.000
51.63500 174.000
51.68000 159.000
51.72500 150.000
51.77000 147.000
51.81500 152.000
51.86000 160.000
51.90500 180.000
51.95000 180.000
51.99500 158.000
52.04000 165.000
52.08500 178.000
52.13000 159.000
52.17500 157.000
52.22000 170.000
52.26500 178.000
52.31000 155.000
52.35500 152.000
52.40000 165.000
52.44500 154.000
52.49000 173.000
52.53500 159.000
52.58000 148.000
52.62500 163.000
52.67000 165.000
52.71500 156.000
52.76000 162.000
52.80500 161.000
52.85000 150.000
52.89500 167.000
52.94000 168.000
52.98500 138.000
53.03000 161.000
53.07500 141.000
53.12000 145.000
53.16500 192.000
53.21000 161.000
53.25500 167.000
53.30000 161.000
53.34500 189.000
53.39000 181.000
53.43500 141.000
53.48000 168.000
53.52500 149.000
53.57000 159.000
53.61500 156.000
53.66000 177.000
53.70500 163.000
53.75000 176.000
53.79500 158.000
53.84000 153.000
53.88500 146.000
53.93000 155.000
53.97500 159.000
54.02000 173.000
54.06500 141.000
54.11000 157.000
54.15500 157.000
54.20000 156.000
54.24500 154.000
54.29000 160.000
54.33500 158.000
54.38000 171.000
54.42500 157.000
54.47000 164.000
54.51500 152.000
54.56000 158.000
54.60500 168.000
54.65000 164.000
54.69500 134.000
54.74000 159.000
54.78500 173.000
54.83000 149.000
54.87500 137.000
54.92000 170.000
54.96500 163.000
55.01000 154.000
55.05500 148.000
55.10000 168.000
55.14500 165.000
55.19000 160.000
55.23500 190.000
55.28000 145.000
55.32500 172.000
55.37000 168.000
55.41500 154.000
55.46000 160.000
55.50500 149.000
55.55000 170.000
55.59500 154.000
55.64000 164.000
55.68500 164.000
55.73000 151.000
55.77500 169.000
55.82000 164.000
55.86500 154.000
55.91000 161.000
55.95500 150.000
56.00000 169.000
56.04500 157.000
56.09000 146.000
56.13500 154.000
56.18000 158.000
56.22500 148.000
56.27000 150.000
56.31500 156.000
56.36000 155.000
56.40500 152.000
56.45000 157.000
56.49500 146.000
56.54000 153.000
56.58500 142.000
56.63000 168.000
56.67500 162.000
56.72000 154.000
56.76500 163.000
56.81000 172.000
56.85500 173.000
56.90000 144.000
56.94500 158.000
56.99000 159.000
57.03500 157.000
57.08000 149.000
57.12500 157.000
57.17000 180.000
57.21500 158.000
57.26000 153.000
57.30500 159.000
57.35000 158.000
57.39500 158.000
57.44000 163.000
57.48500 167.000
57.53000 157.000
57.57500 164.000
57.62000 147.000
57.66500 150.000
57.71000 152.000
57.75500 135.000
57.80000 152.000
57.84500 160.000
57.89000 150.000
57.93500 167.000
57.98000 145.000
58.02500 172.000
58.07000 159.000
58.11500 145.000
58.16000 172.000
58.20500 146.000
58.25000 143.000
58.29500 148.000
58.34000 157.000
58.38500 167.000
58.43000 143.000
58.47500 155.000
58.52000 154.000
58.56500 148.000
58.61000 160.000
58.65500 149.000
58.70000 152.000
58.74500 130.000
58.79000 134.000
58.83500 137.000
58.88000 129.000
58.92500 142.000
58.97000 150.000
59.01500 136.000
59.06000 161.000
59.10500 160.000
59.15000 149.000
59.19500 142.000
59.24000 142.000
59.28500 151.000
59.33000 138.000
59.37500 150.000
59.42000 135.000
59.46500 137.000
59.51000 131.000
59.55500 150.000
59.60000 149.000
59.64500 145.000
59.69000 163.000
59.73500 169.000
59.78000 143.000
59.82500 148.000
59.87000 148.000
59.91500 166.000
59.96000 132.000
60.00500 145.000
60.05000 155.000
60.09500 138.000
60.14000 134.000
60.18500 143.000
60.23000 138.000
60.27500 146.000
60.32000 131.000
60.36500 138.000
60.41000 153.000
60.45500 138.000
60.50000 144.000
60.54500 134.000
60.59000 165.000
60.63500 149.000
60.68000 165.000
60.72500 160.000
60.77000 130.000
60.81500 139.000
60.86000 120.000
60.90500 142.000
60.95000 141.000
60.99500 128.000
61.04000 159.000
61.08500 136.000
61.13000 144.000
61.17500 159.000
61.22000 119.000
61.26500 120.000
61.31000 142.000
61.35500 157.000
61.40000 133.000
61.44500 127.000
61.49000 127.000
61.53500 130.000
61.58000 151.000
61.62500 126.000
61.67000 138.000
61.71500 152.000
61.76000 140.000
61.80500 145.000
61.85000 138.000
61.89500 127.000
61.94000 133.000
61.98500 119.000