File: ISoD/xrd_data/HSC006B_ranges_combined.xy
2.0 1071.0
2.045 1065.0
2.09 1174.0
2.135 1103.0
2.18 1128.0
2.225 1089.0
2.27 988.0
2.315 953.0
2.36 826.0
2.405 739.0
2.45 641.0
2.495 587.0
2.54 532.0
2.585 497.0
2.63 458.0
2.675 467.0
2.72 406.0
2.765 387.0
2.81 404.0
2.855 369.0
2.9 349.0
2.945 331.0
2.99 343.0
3.035 330.0
3.08 297.0
3.125 322.0
3.17 310.0
3.215 345.0
3.26 293.0
3.305 318.0
3.35 296.0
3.395 304.0
3.44 310.0
3.485 278.0
3.53 295.0
3.575 315.0
3.62 294.0
3.665 268.0
3.71 293.0
3.755 290.0
3.8 281.0
3.845 286.0
3.89 254.0
3.935 271.0
3.98 272.0
4.025 259.0
4.07 273.0
4.115 251.0
4.16 254.0
4.205 254.0
4.25 279.0
4.295 245.0
4.34 284.0
4.385 244.0
4.43 276.0
4.475 239.0
4.52 237.0
4.565 242.0
4.61 245.0
4.655 243.0
4.7 246.0
4.745 254.0
4.79 235.0
4.835 232.0
4.88 223.0
4.925 244.0
4.97 228.0
5.015 248.0
5.06 232.0
5.105 216.0
5.15 241.0
5.195 220.0
5.24 239.0
5.285 242.0
5.33 202.0
5.375 219.0
5.42 229.0
5.465 207.0
5.51 243.0
5.555 211.0
5.6 211.0
5.645 238.0
5.69 216.0
5.735 211.0
5.78 233.0
5.825 196.0
5.87 231.0
5.915 230.0
5.96 224.0
6.005 233.0
6.05 229.0
6.095 220.0
6.14 216.0
6.185 201.0
6.23 224.0
6.275 235.0
6.32 226.0
6.365 205.0
6.41 217.0
6.455 228.0
6.5 226.0
6.545 215.0
6.59 211.0
6.635 214.0
6.68 220.0
6.725 228.0
6.77 221.0
6.815 237.0
6.86 234.0
6.905 252.0
6.95 230.0
6.995 229.0
7.04 228.0
7.085 245.0
7.13 230.0
7.175 208.0
7.22 240.0
7.265 229.0
7.31 205.0
7.355 237.0
7.4 235.0
7.445 202.0
7.49 246.0
7.535 234.0
7.58 220.0
7.625 248.0
7.67 237.0
7.715 229.0
7.76 245.0
7.805 249.0
7.85 231.0
7.895 220.0
7.94 249.0
7.985 242.0
8.03 234.0
8.075 241.0
8.12 248.0
8.165 228.0
8.21 232.0
8.255 244.0
8.3 231.0
8.345 229.0
8.39 231.0
8.435 245.0
8.48 232.0
8.525 247.0
8.57 234.0
8.615 237.0
8.66 227.0
8.705 254.0
8.75 246.0
8.795 225.0
8.84 238.0
8.885 240.0
8.93 234.0
8.975 243.0
9.02 224.0
9.065 249.0
9.11 240.0
9.155 241.0
9.2 229.0
9.245 238.0
9.29 261.0
9.335 238.0
9.38 237.0
9.425 242.0
9.47 244.0
9.515 238.0
9.56 254.0
9.605 229.0
9.65 248.0
9.695 259.0
9.74 242.0
9.785 247.0
9.83 233.0
9.875 235.0
9.92 230.0
9.965 230.0
10.01 251.0
10.055 225.0
10.1 247.0
10.145 243.0
10.19 259.0
10.235 255.0
10.28 265.0
10.325 252.0
10.37 275.0
10.415 250.0
10.46 270.0
10.505 260.0
10.55 253.0
10.595 232.0
10.64 259.0
10.685 261.0
10.73 255.0
10.775 241.0
10.82 271.0
10.865 244.0
10.91 281.0
10.955 267.0
11.0 252.0
11.045 282.0
11.09 269.0
11.135 248.0
11.18 276.0
11.225 267.0
11.27 299.0
11.315 263.0
11.36 274.0
11.405 270.0
11.45 281.0
11.495 269.0
11.54 258.0
11.585 284.0
11.63 263.0
11.675 274.0
11.72 260.0
11.765 288.0
11.81 269.0
11.855 282.0
11.9 267.0
11.945 270.0
11.99 299.0
12.035 301.0
12.08 261.0
12.125 309.0
12.17 280.0
12.215 279.0
12.26 301.0
12.305 279.0
12.35 289.0
12.395 276.0
12.44 297.0
12.485 278.0
12.53 284.0
12.575 311.0
12.62 290.0
12.665 327.0
12.71 306.0
12.755 312.0
12.8 336.0
12.845 301.0
12.89 298.0
12.935 322.0
12.98 292.0
13.025 323.0
13.07 317.0
13.115 310.0
13.16 303.0
13.205 330.0
13.25 345.0
13.295 331.0
13.34 338.0
13.385 351.0
13.43 329.0
13.475 319.0
13.52 342.0
13.565 320.0
13.61 330.0
13.655 348.0
13.7 350.0
13.745 341.0
13.79 349.0
13.835 364.0
13.88 336.0
13.925 328.0
13.97 367.0
14.015 344.0
14.06 346.0
14.105 326.0
14.15 358.0
14.195 367.0
14.24 370.0
14.285 380.0
14.33 369.0
14.375 396.0
14.42 349.0
14.465 355.0
14.51 385.0
14.555 342.0
14.6 358.0
14.645 367.0
14.69 367.0
14.735 366.0
14.78 356.0
14.825 353.0
14.87 340.0
14.915 351.0
14.96 343.0
15.005 325.0
15.05 372.0
15.095 390.0
15.14 381.0
15.185 359.0
15.23 384.0
15.275 373.0
15.32 364.0
15.365 371.0
15.41 383.0
15.455 368.0
15.5 356.0
15.545 402.0
15.59 398.0
15.635 394.0
15.68 398.0
15.725 407.0
15.77 365.0
15.815 399.0
15.86 407.0
15.905 395.0
15.95 386.0
15.995 402.0
16.04 419.0
16.085 430.0
16.13 424.0
16.175 388.0
16.22 395.0
16.265 407.0
16.31 387.0
16.355 385.0
16.4 402.0
16.445 393.0
16.49 419.0
16.535 402.0
16.58 397.0
16.625 424.0
16.67 449.0
16.715 394.0
16.76 397.0
16.805 388.0
16.85 397.0
16.895 408.0
16.94 381.0
16.985 397.0
17.03 427.0
17.075 445.0
17.12 413.0
17.165 423.0
17.21 389.0
17.255 401.0
17.3 406.0
17.345 383.0
17.39 407.0
17.435 423.0
17.48 430.0
17.525 421.0
17.57 407.0
17.615 399.0
17.66 419.0
17.705 422.0
17.75 409.0
17.795 414.0
17.84 434.0
17.885 415.0
17.93 447.0
17.975 409.0
18.02 440.0
18.065 405.0
18.11 420.0
18.155 458.0
18.2 481.0
18.245 433.0
18.29 425.0
18.335 443.0
18.38 468.0
18.425 487.0
18.47 497.0
18.515 523.0
18.56 560.0
18.605 610.0
18.65 650.0
18.695 650.0
18.74 671.0
18.785 655.0
18.83 572.0
18.875 548.0
18.92 550.0
18.965 524.0
19.01 501.0
19.055 454.0
19.1 464.0
19.145 488.0
19.19 465.0
19.235 415.0
19.28 438.0
19.325 441.0
19.37 442.0
19.415 458.0
19.46 442.0
19.505 430.0
19.55 426.0
19.595 446.0
19.64 447.0
19.685 487.0
19.73 451.0
19.775 461.0
19.82 444.0
19.865 450.0
19.91 479.0
19.955 453.0
20.0 449.0
20.045 425.0
20.09 463.0
20.135 448.0
20.18 434.0
20.225 476.0
20.27 457.0
20.315 418.0
20.36 461.0
20.405 420.0
20.45 453.0
20.495 449.0
20.54 460.0
20.585 460.0
20.63 452.0
20.675 454.0
20.72 448.0
20.765 451.0
20.81 462.0
20.855 453.0
20.9 439.0
20.945 437.0
20.99 481.0
21.035 449.0
21.08 466.0
21.125 464.0
21.17 471.0
21.215 450.0
21.26 479.0
21.305 483.0
21.35 456.0
21.395 463.0
21.44 456.0
21.485 471.0
21.53 457.0
21.575 451.0
21.62 469.0
21.665 453.0
21.71 454.0
21.755 454.0
21.8 482.0
21.845 490.0
21.89 518.0
21.935 497.0
21.98 485.0
22.025 485.0
22.07 474.0
22.115 495.0
22.16 447.0
22.205 470.0
22.25 465.0
22.295 449.0
22.34 481.0
22.385 464.0
22.43 493.0
22.475 469.0
22.52 509.0
22.565 469.0
22.61 499.0
22.655 477.0
22.7 461.0
22.745 470.0
22.79 479.0
22.835 491.0
22.88 443.0
22.925 497.0
22.97 495.0
23.015 446.0
23.06 477.0
23.105 468.0
23.15 517.0
23.195 512.0
23.24 472.0
23.285 488.0
23.33 493.0
23.375 493.0
23.42 499.0
23.465 493.0
23.51 483.0
23.555 478.0
23.6 483.0
23.645 514.0
23.69 518.0
23.735 503.0
23.78 503.0
23.825 543.0
23.87 523.0
23.915 548.0
23.96 530.0
24.005 595.0
24.05 604.0
24.095 623.0
24.14 636.0
24.185 714.0
24.23 758.0
24.275 802.0
24.32 803.0
24.365 808.0
24.41 787.0
24.455 779.0
24.5 754.0
24.545 709.0
24.59 641.0
24.635 641.0
24.68 586.0
24.725 571.0
24.77 566.0
24.815 563.0
24.86 526.0
24.905 527.0
24.95 510.0
24.995 540.0
25.04 491.0
25.085 536.0
25.13 526.0
25.175 491.0
25.22 502.0
25.265 506.0
25.31 486.0
25.355 520.0
25.4 487.0
25.445 486.0
25.49 471.0
25.535 525.0
25.58 467.0
25.625 480.0
25.67 496.0
25.715 473.0
25.76 474.0
25.805 470.0
25.85 505.0
25.895 476.0
25.94 460.0
25.985 500.0
26.03 498.0
26.075 470.0
26.12 500.0
26.165 495.0
26.21 439.0
26.255 482.0
26.3 502.0
26.345 458.0
26.39 462.0
26.435 437.0
26.48 481.0
26.525 472.0
26.57 468.0
26.615 482.0
26.66 452.0
26.705 475.0
26.75 464.0
26.795 453.0
26.84 457.0
26.885 450.0
26.93 447.0
26.975 480.0
27.02 470.0
27.065 445.0
27.11 463.0
27.155 477.0
27.2 456.0
27.245 443.0
27.29 447.0
27.335 459.0
27.38 468.0
27.425 487.0
27.47 481.0
27.515 512.0
27.56 487.0
27.605 514.0
27.65 552.0
27.695 604.0
27.74 642.0
27.785 757.0
27.83 847.0
27.875 909.0
27.92 1066.0
27.965 1059.0
28.01 1068.0
28.055 788.0
28.1 642.0
28.145 554.0
28.19 508.0
28.235 486.0
28.28 486.0
28.325 469.0
28.37 460.0
28.415 469.0
28.46 419.0
28.505 470.0
28.55 395.0
28.595 435.0
28.64 423.0
28.685 432.0
28.73 446.0
28.775 445.0
28.82 411.0
28.865 442.0
28.91 429.0
28.955 422.0
29.0 390.0
29.045 430.0
29.09 442.0
29.135 445.0
29.18 429.0
29.225 443.0
29.27 428.0
29.315 404.0
29.36 370.0
29.405 421.0
29.45 404.0
29.495 394.0
29.54 401.0
29.585 414.0
29.63 421.0
29.675 409.0
29.72 415.0
29.765 405.0
29.81 412.0
29.855 417.0
29.9 405.0
29.945 379.0
29.99 433.0
30.035 409.0
30.08 413.0
30.125 403.0
30.17 419.0
30.215 394.0
30.26 397.0
30.305 402.0
30.35 446.0
30.395 433.0
30.44 418.0
30.485 436.0
30.53 461.0
30.575 440.0
30.62 396.0
30.665 405.0
30.71 454.0
30.755 398.0
30.8 419.0
30.845 422.0
30.89 417.0
30.935 397.0
30.98 402.0
31.025 424.0
31.07 429.0
31.115 395.0
31.16 374.0
31.205 356.0
31.25 390.0
31.295 381.0
31.34 385.0
31.385 361.0
31.43 372.0
31.475 380.0
31.52 343.0
31.565 378.0
31.61 367.0
31.655 391.0
31.7 373.0
31.745 342.0
31.79 382.0
31.835 337.0
31.88 367.0
31.925 334.0
31.97 357.0
32.015 343.0
32.06 332.0
32.105 334.0
32.15 353.0
32.195 366.0
32.24 347.0
32.285 362.0
32.33 324.0
32.375 379.0
32.42 341.0
32.465 346.0
32.51 359.0
32.555 353.0
32.6 333.0
32.645 339.0
32.69 362.0
32.735 342.0
32.78 350.0
32.825 336.0
32.87 316.0
32.915 316.0
32.96 362.0
33.005 366.0
33.05 301.0
33.095 365.0
33.14 328.0
33.185 365.0
33.23 318.0
33.275 334.0
33.32 360.0
33.365 296.0
33.41 308.0
33.455 325.0
33.5 299.0
33.545 306.0
33.59 308.0
33.635 338.0
33.68 336.0
33.725 315.0
33.77 312.0
33.815 327.0
33.86 324.0
33.905 327.0
33.95 320.0
33.995 318.0
34.04 310.0
34.085 303.0
34.13 277.0
34.175 335.0
34.22 296.0
34.265 316.0
34.31 324.0
34.355 314.0
34.4 317.0
34.445 298.0
34.49 283.0
34.535 285.0
34.58 307.0
34.625 308.0
34.67 284.0
34.715 303.0
34.76 294.0
34.805 316.0
34.85 306.0
34.895 301.0
34.94 309.0
34.985 286.0
35.03 288.0
35.075 309.0
35.12 300.0
35.165 311.0
35.21 306.0
35.255 300.0
35.3 288.0
35.345 287.0
35.39 288.0
35.435 301.0
35.48 305.0
35.525 303.0
35.57 288.0
35.615 293.0
35.66 329.0
35.705 269.0
35.75 281.0
35.795 297.0
35.84 308.0
35.885 288.0
35.93 306.0
35.975 296.0
36.02 297.0
36.065 268.0
36.11 292.0
36.155 291.0
36.2 287.0
36.245 261.0
36.29 299.0
36.335 286.0
36.38 282.0
36.425 263.0
36.47 286.0
36.515 270.0
36.56 276.0
36.605 285.0
36.65 264.0
36.695 260.0
36.74 269.0
36.785 277.0
36.83 263.0
36.875 268.0
36.92 273.0
36.965 277.0
37.01 262.0
37.055 268.0
37.1 282.0
37.145 258.0
37.19 282.0
37.235 261.0
37.28 261.0
37.325 278.0
37.37 262.0
37.415 263.0
37.46 262.0
37.505 277.0
37.55 292.0
37.595 265.0
37.64 289.0
37.685 259.0
37.73 278.0
37.775 265.0
37.82 253.0
37.865 251.0
37.91 257.0
37.955 265.0
38.0 260.0
38.045 246.0
38.09 282.0
38.135 293.0
38.18 242.0
38.225 269.0
38.27 274.0
38.315 259.0
38.36 262.0
38.405 255.0
38.45 246.0
38.495 266.0
38.54 275.0
38.585 240.0
38.63 255.0
38.675 262.0
38.72 262.0
38.765 248.0
38.81 272.0
38.855 255.0
38.9 268.0
38.945 256.0
38.99 284.0
39.035 267.0
39.08 267.0
39.125 280.0
39.17 261.0
39.215 246.0
39.26 274.0
39.305 273.0
39.35 283.0
39.395 269.0
39.44 227.0
39.485 270.0
39.53 272.0
39.575 255.0
39.62 268.0
39.665 244.0
39.71 284.0
39.755 277.0
39.8 243.0
39.845 291.0
39.89 263.0
39.935 264.0
39.98 260.0
40.025 258.0
40.07 274.0
40.115 261.0
40.16 252.0
40.205 256.0
40.25 262.0
40.295 249.0
40.34 254.0
40.385 246.0
40.43 240.0
40.475 276.0
40.52 269.0
40.565 264.0
40.61 293.0
40.655 250.0
40.7 261.0
40.745 268.0
40.79 252.0
40.835 275.0
40.88 256.0
40.925 247.0
40.97 275.0
41.015 255.0
41.06 259.0
41.105 261.0
41.15 245.0
41.195 282.0
41.24 281.0
41.285 267.0
41.33 251.0
41.375 267.0
41.42 291.0
41.465 261.0
41.51 268.0
41.555 266.0
41.6 281.0
41.645 274.0
41.69 273.0
41.735 277.0
41.78 261.0
41.825 260.0
41.87 271.0
41.915 270.0
41.96 265.0
42.005 265.0
42.05 276.0
42.095 288.0
42.14 272.0
42.185 275.0
42.23 266.0
42.275 276.0
42.32 271.0
42.365 282.0
42.41 280.0
42.455 259.0
42.5 277.0
42.545 274.0
42.59 258.0
42.635 300.0
42.68 260.0
42.725 281.0
42.77 263.0
42.815 277.0
42.86 287.0
42.905 294.0
42.95 256.0
42.995 254.0
43.04 271.0
43.085 262.0
43.13 258.0
43.175 275.0
43.22 272.0
43.265 270.0
43.31 291.0
43.355 296.0
43.4 286.0
43.445 297.0
43.49 285.0
43.535 278.0
43.58 278.0
43.625 285.0
43.67 279.0
43.715 272.0
43.76 253.0
43.805 290.0
43.85 269.0
43.895 271.0
43.94 273.0
43.985 260.0
44.03 304.0
44.075 263.0
44.12 261.0
44.165 282.0
44.21 272.0
44.255 287.0
44.3 263.0
44.345 257.0
44.39 276.0
44.435 268.0
44.48 255.0
44.525 270.0
44.57 290.0
44.615 262.0
44.66 268.0
44.705 275.0
44.75 282.0
44.795 260.0
44.84 282.0
44.885 298.0
44.93 281.0
44.975 265.0
45.02 269.0
45.065 247.0
45.11 269.0
45.155 260.0
45.2 252.0
45.245 289.0
45.29 279.0
45.335 276.0
45.38 274.0
45.425 249.0
45.47 257.0
45.515 227.0
45.56 264.0
45.605 262.0
45.65 266.0
45.695 248.0
45.74 251.0
45.785 253.0
45.83 259.0
45.875 250.0
45.92 300.0
45.965 283.0
46.01 281.0
46.055 264.0
46.1 266.0
46.145 282.0
46.19 255.0
46.235 250.0
46.28 287.0
46.325 267.0
46.37 256.0
46.415 261.0
46.46 252.0
46.505 265.0
46.55 273.0
46.595 258.0
46.64 271.0
46.685 259.0
46.73 256.0
46.775 246.0
46.82 249.0
46.865 252.0
46.91 250.0
46.955 247.0
47.0 260.0
47.045 248.0
47.09 264.0
47.135 257.0
47.18 242.0
47.225 224.0
47.27 234.0
47.315 285.0
47.36 248.0
47.405 266.0
47.45 251.0
47.495 260.0
47.54 238.0
47.585 244.0
47.63 239.0
47.675 250.0
47.72 234.0
47.765 245.0
47.81 271.0
47.855 266.0
47.9 236.0
47.945 260.0
47.99 261.0
48.035 251.0
48.08 255.0
48.125 239.0
48.17 236.0
48.215 263.0
48.26 266.0
48.305 227.0
48.35 246.0
48.395 234.0
48.44 252.0
48.485 246.0
48.53 250.0
48.575 239.0
48.62 226.0
48.665 241.0
48.71 275.0
48.755 255.0
48.8 254.0
48.845 258.0
48.89 265.0
48.935 240.0
48.98 257.0
49.025 254.0
49.07 254.0
49.115 238.0
49.16 239.0
49.205 237.0
49.25 232.0
49.295 260.0
49.34 265.0
49.385 248.0
49.43 239.0
49.475 241.0
49.52 248.0
49.565 233.0
49.61 256.0
49.655 256.0
49.7 244.0
49.745 229.0
49.79 232.0
49.835 243.0
49.88 244.0
49.925 241.0
49.97 240.0
50.015 240.0
50.06 237.0
50.105 231.0
50.15 231.0
50.195 236.0
50.24 232.0
50.285 238.0
50.33 235.0
50.375 249.0
50.42 233.0
50.465 256.0
50.51 244.0
50.555 236.0
50.6 246.0
50.645 230.0
50.69 245.0
50.735 240.0
50.78 249.0
50.825 235.0
50.87 267.0
50.915 237.0
50.96 235.0
51.005 236.0
51.05 238.0
51.095 269.0
51.14 265.0
51.185 200.0
51.23 229.0
51.275 239.0
51.32 211.0
51.365 218.0
51.41 253.0
51.455 222.0
51.5 249.0
51.545 229.0
51.59 249.0
51.635 255.0
51.68 262.0
51.725 231.0
51.77 250.0
51.815 216.0
51.86 229.0
51.905 238.0
51.95 236.0
51.995 241.0
52.04 236.0
52.085 220.0
52.13 222.0
52.175 231.0
52.22 236.0
52.265 230.0
52.31 222.0
52.355 223.0
52.4 224.0
52.445 221.0
52.49 218.0
52.535 247.0
52.58 251.0
52.625 236.0
52.67 254.0
52.715 235.0
52.76 221.0
52.805 244.0
52.85 246.0
52.895 235.0
52.94 230.0
52.985 207.0
53.03 230.0
53.075 235.0
53.12 216.0
53.165 239.0
53.21 246.0
53.255 243.0
53.3 217.0
53.345 252.0
53.39 231.0
53.435 226.0
53.48 220.0
53.525 225.0
53.57 220.0
53.615 232.0
53.66 231.0
53.705 219.0
53.75 228.0
53.795 244.0
53.84 228.0
53.885 210.0
53.93 221.0
53.975 236.0
54.02 232.0
54.065 196.0
54.11 241.0
54.155 224.0
54.2 224.0
54.245 226.0
54.29 216.0
54.335 217.0
54.38 224.0
54.425 232.0
54.47 218.0
54.515 229.0
54.56 223.0
54.605 214.0
54.65 236.0
54.695 222.0
54.74 241.0
54.785 225.0
54.83 225.0
54.875 231.0
54.92 246.0
54.965 227.0
55.01 229.0
55.055 218.0
55.1 203.0
55.145 206.0
55.19 229.0
55.235 210.0
55.28 232.0
55.325 218.0
55.37 218.0
55.415 221.0
55.46 216.0
55.505 230.0
55.55 214.0
55.595 220.0
55.64 229.0
55.685 213.0
55.73 202.0
55.775 194.0
55.82 217.0
55.865 195.0
55.91 207.0
55.955 223.0
56.0 214.0
56.045 231.0
56.09 206.0
56.135 226.0
56.18 234.0
56.225 234.0
56.27 200.0
56.315 196.0
56.36 203.0
56.405 214.0
56.45 213.0
56.495 221.0
56.54 223.0
56.585 190.0
56.63 214.0
56.675 210.0
56.72 214.0
56.765 188.0
56.81 219.0
56.855 208.0
56.9 218.0
56.945 230.0
56.99 198.0
57.035 194.0
57.08 215.0
57.125 212.0
57.17 196.0
57.215 208.0
57.26 208.0
57.305 206.0
57.35 219.0
57.395 212.0
57.44 204.0
57.485 204.0
57.53 226.0
57.575 219.0
57.62 214.0
57.665 243.0
57.71 228.0
57.755 237.0
57.8 205.0
57.845 187.0
57.89 195.0
57.935 232.0
57.98 222.0
58.025 215.0
58.07 213.0
58.115 216.0
58.16 224.0
58.205 213.0
58.25 210.0
58.295 192.0
58.34 200.0
58.385 200.0
58.43 229.0
58.475 206.0
58.52 205.0
58.565 217.0
58.61 211.0
58.655 178.0
58.7 213.0
58.745 195.0
58.79 189.0
58.835 189.0
58.88 226.0
58.925 182.0
58.97 196.0
59.015 188.0
59.06 204.0
59.105 200.0
59.15 208.0
59.195 209.0
59.24 203.0
59.285 187.0
59.33 173.0
59.375 208.0
59.42 194.0
59.465 203.0
59.51 214.0
59.555 199.0
59.6 194.0
59.645 193.0
59.69 187.0
59.735 193.0
59.78 195.0
59.825 193.0
59.87 207.0
59.915 199.0
59.96 190.0
60.005 183.0
60.05 217.0
60.095 195.0
60.14 206.0
60.185 181.0
60.23 206.0
60.275 193.0
60.32 177.0
60.365 198.0
60.41 201.0
60.455 193.0
60.5 166.0
60.545 196.0
60.59 208.0
60.635 222.0
60.68 193.0
60.725 184.0
60.77 188.0
60.815 214.0
60.86 192.0
60.905 222.0
60.95 212.0
60.995 186.0
61.04 197.0
61.085 198.0
61.13 202.0
61.175 182.0
61.22 195.0
61.265 182.0
61.31 192.0
61.355 179.0
61.4 176.0
61.445 207.0
61.49 189.0
61.535 196.0
61.58 185.0
61.625 184.0
61.67 196.0
61.715 215.0
61.76 213.0
61.805 193.0
61.85 202.0
61.895 211.0
61.94 183.0
61.985 180.0