File: ISoD/xrd_data/HSC062_Rueck.xy
5.00000 822.000
5.04500 882.000
5.09000 868.000
5.13500 815.000
5.18000 878.000
5.22500 842.000
5.27000 799.000
5.31500 768.000
5.36000 845.000
5.40500 817.000
5.45000 819.000
5.49500 781.000
5.54000 795.000
5.58500 818.000
5.63000 782.000
5.67500 786.000
5.72000 754.000
5.76500 798.000
5.81000 778.000
5.85500 749.000
5.90000 745.000
5.94500 791.000
5.99000 784.000
6.03500 779.000
6.08000 772.000
6.12500 799.000
6.17000 765.000
6.21500 773.000
6.26000 771.000
6.30500 752.000
6.35000 737.000
6.39500 744.000
6.44000 727.000
6.48500 716.000
6.53000 760.000
6.57500 746.000
6.62000 755.000
6.66500 759.000
6.71000 742.000
6.75500 765.000
6.80000 763.000
6.84500 755.000
6.89000 789.000
6.93500 737.000
6.98000 725.000
7.02500 796.000
7.07000 781.000
7.11500 777.000
7.16000 753.000
7.20500 848.000
7.25000 782.000
7.29500 821.000
7.34000 862.000
7.38500 862.000
7.43000 880.000
7.47500 897.000
7.52000 942.000
7.56500 982.000
7.61000 1111.000
7.65500 1104.000
7.70000 1313.000
7.74500 1370.000
7.79000 1532.000
7.83500 1725.000
7.88000 1856.000
7.92500 2055.000
7.97000 2196.000
8.01500 2248.000
8.06000 2166.000
8.10500 2212.000
8.15000 2118.000
8.19500 2096.000
8.24000 1934.000
8.28500 1829.000
8.33000 1720.000
8.37500 1692.000
8.42000 1661.000
8.46500 1568.000
8.51000 1620.000
8.55500 1564.000
8.60000 1478.000
8.64500 1496.000
8.69000 1406.000
8.73500 1421.000
8.78000 1429.000
8.82500 1411.000
8.87000 1443.000
8.91500 1402.000
8.96000 1379.000
9.00500 1347.000
9.05000 1419.000
9.09500 1339.000
9.14000 1327.000
9.18500 1335.000
9.23000 1281.000
9.27500 1272.000
9.32000 1295.000
9.36500 1289.000
9.41000 1284.000
9.45500 1252.000
9.50000 1254.000
9.54500 1243.000
9.59000 1230.000
9.63500 1138.000
9.68000 1170.000
9.72500 1128.000
9.77000 1157.000
9.81500 1138.000
9.86000 1074.000
9.90500 1074.000
9.95000 1013.000
9.99500 1050.000
10.04000 1037.000
10.08500 1030.000
10.13000 972.000
10.17500 1013.000
10.22000 937.000
10.26500 978.000
10.31000 951.000
10.35500 917.000
10.40000 868.000
10.44500 857.000
10.49000 841.000
10.53500 877.000
10.58000 869.000
10.62500 840.000
10.67000 842.000
10.71500 794.000
10.76000 793.000
10.80500 803.000
10.85000 816.000
10.89500 783.000
10.94000 754.000
10.98500 799.000
11.03000 786.000
11.07500 725.000
11.12000 769.000
11.16500 774.000
11.21000 754.000
11.25500 755.000
11.30000 761.000
11.34500 753.000
11.39000 734.000
11.43500 760.000
11.48000 745.000
11.52500 777.000
11.57000 758.000
11.61500 741.000
11.66000 754.000
11.70500 732.000
11.75000 752.000
11.79500 735.000
11.84000 789.000
11.88500 729.000
11.93000 747.000
11.97500 736.000
12.02000 729.000
12.06500 739.000
12.11000 734.000
12.15500 714.000
12.20000 752.000
12.24500 714.000
12.29000 754.000
12.33500 700.000
12.38000 724.000
12.42500 708.000
12.47000 750.000
12.51500 713.000
12.56000 720.000
12.60500 760.000
12.65000 749.000
12.69500 702.000
12.74000 706.000
12.78500 737.000
12.83000 736.000
12.87500 768.000
12.92000 735.000
12.96500 719.000
13.01000 733.000
13.05500 741.000
13.10000 725.000
13.14500 693.000
13.19000 732.000
13.23500 723.000
13.28000 765.000
13.32500 759.000
13.37000 752.000
13.41500 711.000
13.46000 746.000
13.50500 724.000
13.55000 721.000
13.59500 711.000
13.64000 727.000
13.68500 739.000
13.73000 748.000
13.77500 826.000
13.82000 789.000
13.86500 779.000
13.91000 807.000
13.95500 804.000
14.00000 868.000
14.04500 820.000
14.09000 783.000
14.13500 779.000
14.18000 845.000
14.22500 813.000
14.27000 771.000
14.31500 844.000
14.36000 800.000
14.40500 806.000
14.45000 805.000
14.49500 818.000
14.54000 800.000
14.58500 834.000
14.63000 787.000
14.67500 792.000
14.72000 806.000
14.76500 755.000
14.81000 770.000
14.85500 805.000
14.90000 826.000
14.94500 828.000
14.99000 831.000
15.03500 781.000
15.08000 808.000
15.12500 822.000
15.17000 811.000
15.21500 808.000
15.26000 773.000
15.30500 818.000
15.35000 786.000
15.39500 774.000
15.44000 809.000
15.48500 783.000
15.53000 757.000
15.57500 799.000
15.62000 825.000
15.66500 811.000
15.71000 811.000
15.75500 845.000
15.80000 805.000
15.84500 800.000
15.89000 796.000
15.93500 825.000
15.98000 809.000
16.02500 807.000
16.07000 793.000
16.11500 822.000
16.16000 834.000
16.20500 830.000
16.25000 823.000
16.29500 802.000
16.34000 855.000
16.38500 814.000
16.43000 864.000
16.47500 848.000
16.52000 798.000
16.56500 824.000
16.61000 824.000
16.65500 821.000
16.70000 839.000
16.74500 803.000
16.79000 847.000
16.83500 827.000
16.88000 825.000
16.92500 839.000
16.97000 809.000
17.01500 778.000
17.06000 815.000
17.10500 832.000
17.15000 876.000
17.19500 849.000
17.24000 821.000
17.28500 811.000
17.33000 818.000
17.37500 858.000
17.42000 842.000
17.46500 836.000
17.51000 820.000
17.55500 820.000
17.60000 822.000
17.64500 841.000
17.69000 864.000
17.73500 846.000
17.78000 831.000
17.82500 830.000
17.87000 855.000
17.91500 814.000
17.96000 823.000
18.00500 838.000
18.05000 801.000
18.09500 859.000
18.14000 819.000
18.18500 822.000
18.23000 839.000
18.27500 837.000
18.32000 832.000
18.36500 831.000
18.41000 803.000
18.45500 816.000
18.50000 754.000
18.54500 838.000
18.59000 812.000
18.63500 833.000
18.68000 805.000
18.72500 804.000
18.77000 776.000
18.81500 830.000
18.86000 833.000
18.90500 833.000
18.95000 834.000
18.99500 798.000
19.04000 796.000
19.08500 838.000
19.13000 811.000
19.17500 788.000
19.22000 804.000
19.26500 873.000
19.31000 795.000
19.35500 847.000
19.40000 805.000
19.44500 817.000
19.49000 862.000
19.53500 851.000
19.58000 849.000
19.62500 816.000
19.67000 815.000
19.71500 820.000
19.76000 752.000
19.80500 800.000
19.85000 855.000
19.89500 815.000
19.94000 837.000
19.98500 860.000
20.03000 859.000
20.07500 835.000
20.12000 852.000
20.16500 816.000
20.21000 875.000
20.25500 796.000
20.30000 850.000
20.34500 825.000
20.39000 815.000
20.43500 855.000
20.48000 806.000
20.52500 867.000
20.57000 847.000
20.61500 828.000
20.66000 870.000
20.70500 830.000
20.75000 871.000
20.79500 865.000
20.84000 877.000
20.88500 908.000
20.93000 913.000
20.97500 922.000
21.02000 952.000
21.06500 946.000
21.11000 1005.000
21.15500 986.000
21.20000 1025.000
21.24500 1052.000
21.29000 990.000
21.33500 1085.000
21.38000 1107.000
21.42500 1041.000
21.47000 987.000
21.51500 1030.000
21.56000 1062.000
21.60500 1028.000
21.65000 971.000
21.69500 1003.000
21.74000 1035.000
21.78500 990.000
21.83000 937.000
21.87500 992.000
21.92000 977.000
21.96500 990.000
22.01000 1016.000
22.05500 988.000
22.10000 1006.000
22.14500 963.000
22.19000 952.000
22.23500 1018.000
22.28000 1025.000
22.32500 1050.000
22.37000 986.000
22.41500 1037.000
22.46000 1019.000
22.50500 971.000
22.55000 1008.000
22.59500 1007.000
22.64000 955.000
22.68500 943.000
22.73000 1086.000
22.77500 952.000
22.82000 1051.000
22.86500 992.000
22.91000 1037.000
22.95500 1043.000
23.00000 1045.000
23.04500 1044.000
23.09000 1042.000
23.13500 1044.000
23.18000 1020.000
23.22500 1058.000
23.27000 1050.000
23.31500 1027.000
23.36000 1100.000
23.40500 1110.000
23.45000 1097.000
23.49500 1041.000
23.54000 1105.000
23.58500 1102.000
23.63000 1136.000
23.67500 1056.000
23.72000 1082.000
23.76500 1141.000
23.81000 1107.000
23.85500 1070.000
23.90000 1139.000
23.94500 1126.000
23.99000 1123.000
24.03500 1128.000
24.08000 1114.000
24.12500 1119.000
24.17000 1109.000
24.21500 1125.000
24.26000 1123.000
24.30500 1141.000
24.35000 1111.000
24.39500 1151.000
24.44000 1178.000
24.48500 1144.000
24.53000 1093.000
24.57500 1147.000
24.62000 1105.000
24.66500 1101.000
24.71000 1090.000
24.75500 1117.000
24.80000 1135.000
24.84500 1153.000
24.89000 1188.000
24.93500 1120.000
24.98000 1125.000
25.02500 1143.000
25.07000 1166.000
25.11500 1082.000
25.16000 1174.000
25.20500 1086.000
25.25000 1151.000
25.29500 1195.000
25.34000 1177.000
25.38500 1081.000
25.43000 1125.000
25.47500 1077.000
25.52000 1129.000
25.56500 1127.000
25.61000 1156.000
25.65500 1151.000
25.70000 1142.000
25.74500 1160.000
25.79000 1160.000
25.83500 1135.000
25.88000 1112.000
25.92500 1103.000
25.97000 1164.000
26.01500 1170.000
26.06000 1183.000
26.10500 1143.000
26.15000 1144.000
26.19500 1156.000
26.24000 1168.000
26.28500 1206.000
26.33000 1200.000
26.37500 1204.000
26.42000 1166.000
26.46500 1196.000
26.51000 1223.000
26.55500 1170.000
26.60000 1232.000
26.64500 1220.000
26.69000 1260.000
26.73500 1291.000
26.78000 1220.000
26.82500 1258.000
26.87000 1235.000
26.91500 1240.000
26.96000 1279.000
27.00500 1293.000
27.05000 1294.000
27.09500 1294.000
27.14000 1305.000
27.18500 1352.000
27.23000 1388.000
27.27500 1416.000
27.32000 1413.000
27.36500 1401.000
27.41000 1430.000
27.45500 1505.000
27.50000 1568.000
27.54500 1591.000
27.59000 1748.000
27.63500 1746.000
27.68000 1847.000
27.72500 1931.000
27.77000 2001.000
27.81500 2201.000
27.86000 2264.000
27.90500 2494.000
27.95000 2660.000
27.99500 3038.000
28.04000 3266.000
28.08500 3641.000
28.13000 4031.000
28.17500 4607.000
28.22000 5158.000
28.26500 5856.000
28.31000 6103.000
28.35500 6319.000
28.40000 6236.000
28.44500 5586.000
28.49000 5137.000
28.53500 4588.000
28.58000 4064.000
28.62500 3710.000
28.67000 3291.000
28.71500 2961.000
28.76000 2632.000
28.80500 2504.000
28.85000 2243.000
28.89500 2137.000
28.94000 1988.000
28.98500 1904.000
29.03000 1839.000
29.07500 1813.000
29.12000 1730.000
29.16500 1742.000
29.21000 1658.000
29.25500 1615.000
29.30000 1562.000
29.34500 1528.000
29.39000 1462.000
29.43500 1461.000
29.48000 1418.000
29.52500 1385.000
29.57000 1342.000
29.61500 1361.000
29.66000 1274.000
29.70500 1283.000
29.75000 1306.000
29.79500 1246.000
29.84000 1257.000
29.88500 1236.000
29.93000 1163.000
29.97500 1199.000
30.02000 1166.000
30.06500 1214.000
30.11000 1186.000
30.15500 1136.000
30.20000 1108.000
30.24500 1125.000
30.29000 1110.000
30.33500 1102.000
30.38000 1039.000
30.42500 1031.000
30.47000 1039.000
30.51500 1069.000
30.56000 1042.000
30.60500 1008.000
30.65000 1037.000
30.69500 1048.000
30.74000 1026.000
30.78500 1018.000
30.83000 1010.000
30.87500 962.000
30.92000 1023.000
30.96500 993.000
31.01000 1003.000
31.05500 993.000
31.10000 1004.000
31.14500 992.000
31.19000 986.000
31.23500 982.000
31.28000 947.000
31.32500 911.000
31.37000 947.000
31.41500 952.000
31.46000 969.000
31.50500 950.000
31.55000 917.000
31.59500 942.000
31.64000 924.000
31.68500 937.000
31.73000 918.000
31.77500 957.000
31.82000 916.000
31.86500 940.000
31.91000 931.000
31.95500 901.000
32.00000 891.000
32.04500 931.000
32.09000 933.000
32.13500 1003.000
32.18000 932.000
32.22500 981.000
32.27000 1015.000
32.31500 1022.000
32.36000 1023.000
32.40500 1002.000
32.45000 999.000
32.49500 956.000
32.54000 992.000
32.58500 982.000
32.63000 924.000
32.67500 983.000
32.72000 869.000
32.76500 876.000
32.81000 861.000
32.85500 845.000
32.90000 869.000
32.94500 849.000
32.99000 846.000
33.03500 820.000
33.08000 798.000
33.12500 808.000
33.17000 823.000
33.21500 769.000
33.26000 767.000
33.30500 750.000
33.35000 785.000
33.39500 766.000
33.44000 794.000
33.48500 781.000
33.53000 766.000
33.57500 764.000
33.62000 741.000
33.66500 788.000
33.71000 745.000
33.75500 722.000
33.80000 767.000
33.84500 765.000
33.89000 771.000
33.93500 728.000
33.98000 769.000
34.02500 746.000
34.07000 762.000
34.11500 777.000
34.16000 764.000
34.20500 690.000
34.25000 736.000
34.29500 755.000
34.34000 692.000
34.38500 732.000
34.43000 727.000
34.47500 756.000
34.52000 754.000
34.56500 712.000
34.61000 717.000
34.65500 714.000
34.70000 719.000
34.74500 757.000
34.79000 748.000
34.83500 734.000
34.88000 727.000
34.92500 737.000
34.97000 749.000
35.01500 769.000
35.06000 807.000
35.10500 792.000
35.15000 809.000
35.19500 826.000
35.24000 869.000
35.28500 887.000
35.33000 885.000
35.37500 935.000
35.42000 964.000
35.46500 944.000
35.51000 1016.000
35.55500 936.000
35.60000 969.000
35.64500 955.000
35.69000 944.000
35.73500 963.000
35.78000 915.000
35.82500 935.000
35.87000 968.000
35.91500 899.000
35.96000 918.000
36.00500 907.000
36.05000 930.000
36.09500 917.000
36.14000 895.000
36.18500 880.000
36.23000 869.000
36.27500 906.000
36.32000 893.000
36.36500 906.000
36.41000 917.000
36.45500 887.000
36.50000 889.000
36.54500 906.000
36.59000 918.000
36.63500 903.000
36.68000 898.000
36.72500 897.000
36.77000 840.000
36.81500 898.000
36.86000 879.000
36.90500 919.000
36.95000 839.000
36.99500 894.000
37.04000 854.000
37.08500 859.000
37.13000 858.000
37.17500 888.000
37.22000 884.000
37.26500 925.000
37.31000 896.000
37.35500 857.000
37.40000 930.000
37.44500 894.000
37.49000 901.000
37.53500 860.000
37.58000 845.000
37.62500 854.000
37.67000 837.000
37.71500 799.000
37.76000 877.000
37.80500 793.000
37.85000 829.000
37.89500 777.000
37.94000 751.000
37.98500 796.000
38.03000 826.000
38.07500 750.000
38.12000 773.000
38.16500 775.000
38.21000 800.000
38.25500 803.000
38.30000 762.000
38.34500 760.000
38.39000 704.000
38.43500 746.000
38.48000 747.000
38.52500 766.000
38.57000 730.000
38.61500 713.000
38.66000 710.000
38.70500 743.000
38.75000 715.000
38.79500 717.000
38.84000 704.000
38.88500 755.000
38.93000 728.000
38.97500 734.000
39.02000 723.000
39.06500 739.000
39.11000 711.000
39.15500 711.000
39.20000 727.000
39.24500 731.000
39.29000 691.000
39.33500 686.000
39.38000 708.000
39.42500 679.000
39.47000 688.000
39.51500 681.000
39.56000 716.000
39.60500 670.000
39.65000 686.000
39.69500 667.000
39.74000 666.000
39.78500 688.000
39.83000 658.000
39.87500 673.000
39.92000 685.000
39.96500 662.000
40.01000 639.000
40.05500 677.000
40.10000 637.000
40.14500 658.000
40.19000 649.000
40.23500 658.000
40.28000 609.000
40.32500 646.000
40.37000 614.000
40.41500 613.000
40.46000 657.000
40.50500 617.000
40.55000 613.000
40.59500 608.000
40.64000 631.000
40.68500 604.000
40.73000 603.000
40.77500 607.000
40.82000 631.000
40.86500 614.000
40.91000 637.000
40.95500 618.000
41.00000 612.000
41.04500 589.000
41.09000 604.000
41.13500 598.000
41.18000 612.000
41.22500 669.000
41.27000 586.000
41.31500 576.000
41.36000 573.000
41.40500 569.000
41.45000 592.000
41.49500 587.000
41.54000 570.000
41.58500 589.000
41.63000 602.000
41.67500 543.000
41.72000 551.000
41.76500 569.000
41.81000 608.000
41.85500 549.000
41.90000 565.000
41.94500 563.000
41.99000 551.000
42.03500 574.000
42.08000 588.000
42.12500 572.000
42.17000 598.000
42.21500 594.000
42.26000 585.000
42.30500 603.000
42.35000 617.000
42.39500 568.000
42.44000 625.000
42.48500 631.000
42.53000 605.000
42.57500 602.000
42.62000 580.000
42.66500 608.000
42.71000 601.000
42.75500 620.000
42.80000 623.000
42.84500 612.000
42.89000 641.000
42.93500 623.000
42.98000 684.000
43.02500 674.000
43.07000 681.000
43.11500 731.000
43.16000 734.000
43.20500 784.000
43.25000 707.000
43.29500 782.000
43.34000 732.000
43.38500 786.000
43.43000 739.000
43.47500 760.000
43.52000 757.000
43.56500 739.000
43.61000 731.000
43.65500 748.000
43.70000 723.000
43.74500 684.000
43.79000 694.000
43.83500 762.000
43.88000 711.000
43.92500 698.000
43.97000 712.000
44.01500 731.000
44.06000 708.000
44.10500 670.000
44.15000 645.000
44.19500 669.000
44.24000 632.000
44.28500 668.000
44.33000 682.000
44.37500 680.000
44.42000 638.000
44.46500 684.000
44.51000 677.000
44.55500 675.000
44.60000 725.000
44.64500 656.000
44.69000 717.000
44.73500 684.000
44.78000 652.000
44.82500 680.000
44.87000 629.000
44.91500 700.000
44.96000 638.000
45.00500 628.000
45.05000 661.000
45.09500 638.000
45.14000 679.000
45.18500 652.000
45.23000 647.000
45.27500 620.000
45.32000 629.000
45.36500 646.000
45.41000 661.000
45.45500 629.000
45.50000 636.000
45.54500 612.000
45.59000 625.000
45.63500 640.000
45.68000 596.000
45.72500 582.000
45.77000 605.000
45.81500 640.000
45.86000 595.000
45.90500 587.000
45.95000 545.000
45.99500 575.000
46.04000 574.000
46.08500 557.000
46.13000 548.000
46.17500 581.000
46.22000 532.000
46.26500 546.000
46.31000 540.000
46.35500 581.000
46.40000 533.000
46.44500 533.000
46.49000 536.000
46.53500 540.000
46.58000 545.000
46.62500 535.000
46.67000 529.000
46.71500 564.000
46.76000 498.000
46.80500 537.000
46.85000 530.000
46.89500 539.000
46.94000 508.000
46.98500 538.000
47.03000 515.000
47.07500 499.000
47.12000 479.000
47.16500 530.000
47.21000 515.000
47.25500 497.000
47.30000 510.000
47.34500 486.000
47.39000 505.000
47.43500 505.000
47.48000 494.000
47.52500 503.000
47.57000 505.000
47.61500 486.000
47.66000 470.000
47.70500 465.000
47.75000 479.000
47.79500 468.000
47.84000 444.000
47.88500 442.000
47.93000 491.000
47.97500 507.000
48.02000 496.000
48.06500 462.000
48.11000 476.000
48.15500 453.000
48.20000 439.000
48.24500 453.000
48.29000 457.000
48.33500 449.000
48.38000 449.000
48.42500 467.000
48.47000 447.000
48.51500 473.000
48.56000 426.000
48.60500 462.000
48.65000 443.000
48.69500 439.000
48.74000 446.000
48.78500 428.000
48.83000 430.000
48.87500 462.000
48.92000 437.000
48.96500 470.000
49.01000 447.000
49.05500 433.000
49.10000 448.000
49.14500 411.000
49.19000 439.000
49.23500 453.000
49.28000 425.000
49.32500 430.000
49.37000 438.000
49.41500 452.000
49.46000 454.000
49.50500 452.000
49.55000 447.000
49.59500 460.000
49.64000 452.000
49.68500 434.000
49.73000 458.000
49.77500 453.000
49.82000 451.000
49.86500 455.000
49.91000 446.000
49.95500 426.000
50.00000 456.000
50.04500 490.000
50.09000 509.000
50.13500 472.000
50.18000 487.000
50.22500 492.000
50.27000 478.000
50.31500 458.000
50.36000 478.000
50.40500 434.000
50.45000 441.000
50.49500 456.000
50.54000 470.000
50.58500 439.000
50.63000 465.000
50.67500 467.000
50.72000 443.000
50.76500 458.000
50.81000 463.000
50.85500 469.000
50.90000 515.000
50.94500 442.000
50.99000 458.000
51.03500 456.000
51.08000 428.000
51.12500 451.000
51.17000 441.000
51.21500 423.000
51.26000 454.000
51.30500 477.000
51.35000 459.000
51.39500 456.000
51.44000 468.000
51.48500 469.000
51.53000 454.000
51.57500 452.000
51.62000 471.000
51.66500 500.000
51.71000 487.000
51.75500 482.000
51.80000 476.000
51.84500 496.000
51.89000 483.000
51.93500 455.000
51.98000 440.000
52.02500 517.000
52.07000 460.000
52.11500 434.000
52.16000 512.000
52.20500 449.000
52.25000 498.000
52.29500 463.000
52.34000 458.000
52.38500 473.000
52.43000 458.000
52.47500 454.000
52.52000 493.000
52.56500 436.000
52.61000 447.000
52.65500 473.000
52.70000 438.000
52.74500 451.000
52.79000 459.000
52.83500 468.000
52.88000 442.000
52.92500 442.000
52.97000 492.000
53.01500 470.000
53.06000 468.000
53.10500 413.000
53.15000 444.000
53.19500 460.000
53.24000 452.000
53.28500 459.000
53.33000 444.000
53.37500 438.000
53.42000 442.000
53.46500 463.000
53.51000 465.000
53.55500 465.000
53.60000 480.000
53.64500 464.000
53.69000 438.000
53.73500 453.000
53.78000 450.000
53.82500 458.000
53.87000 406.000
53.91500 468.000
53.96000 455.000
54.00500 432.000
54.05000 409.000
54.09500 453.000
54.14000 402.000
54.18500 419.000
54.23000 445.000
54.27500 452.000
54.32000 445.000
54.36500 423.000
54.41000 450.000
54.45500 450.000
54.50000 419.000
54.54500 433.000
54.59000 423.000
54.63500 458.000
54.68000 448.000
54.72500 443.000
54.77000 418.000
54.81500 424.000
54.86000 448.000
54.90500 416.000
54.95000 389.000
54.99500 418.000
55.04000 427.000
55.08500 427.000
55.13000 430.000
55.17500 420.000
55.22000 413.000
55.26500 416.000
55.31000 416.000
55.35500 427.000
55.40000 423.000
55.44500 401.000
55.49000 439.000
55.53500 439.000
55.58000 410.000
55.62500 423.000
55.67000 418.000
55.71500 445.000
55.76000 410.000
55.80500 392.000
55.85000 422.000
55.89500 396.000
55.94000 408.000
55.98500 405.000
56.03000 416.000
56.07500 410.000
56.12000 448.000
56.16500 413.000
56.21000 414.000
56.25500 400.000
56.30000 398.000
56.34500 397.000
56.39000 391.000
56.43500 408.000
56.48000 404.000
56.52500 451.000
56.57000 427.000
56.61500 412.000
56.66000 417.000
56.70500 405.000
56.75000 431.000
56.79500 406.000
56.84000 377.000
56.88500 396.000
56.93000 418.000
56.97500 409.000
57.02000 401.000
57.06500 420.000
57.11000 388.000
57.15500 422.000
57.20000 416.000
57.24500 446.000
57.29000 384.000
57.33500 419.000
57.38000 433.000
57.42500 416.000
57.47000 392.000
57.51500 434.000
57.56000 398.000
57.60500 418.000
57.65000 446.000
57.69500 408.000
57.74000 446.000
57.78500 412.000
57.83000 424.000
57.87500 437.000
57.92000 454.000
57.96500 431.000
58.01000 465.000
58.05500 469.000
58.10000 490.000
58.14500 470.000
58.19000 483.000
58.23500 470.000
58.28000 465.000
58.32500 484.000
58.37000 476.000
58.41500 467.000
58.46000 464.000
58.50500 550.000
58.55000 501.000
58.59500 518.000
58.64000 490.000
58.68500 479.000
58.73000 515.000
58.77500 503.000
58.82000 492.000
58.86500 461.000
58.91000 482.000
58.95500 488.000
59.00000 461.000
59.04500 458.000
59.09000 460.000
59.13500 438.000
59.18000 446.000
59.22500 438.000
59.27000 412.000
59.31500 425.000
59.36000 441.000
59.40500 464.000
59.45000 408.000
59.49500 432.000
59.54000 421.000
59.58500 418.000
59.63000 431.000
59.67500 416.000
59.72000 414.000
59.76500 390.000
59.81000 412.000
59.85500 415.000
59.90000 410.000
59.94500 420.000
59.99000 389.000
60.03500 412.000
60.08000 414.000
60.12500 396.000
60.17000 415.000
60.21500 395.000
60.26000 398.000
60.30500 428.000
60.35000 396.000
60.39500 387.000
60.44000 394.000
60.48500 409.000