File: ISoD/xrd_data/HSC047_Sublimat.xy
2.00000 5.000
2.04500 3.000
2.09000 4.000
2.13500 1.000
2.18000 4.000
2.22500 1.000
2.27000 1.000
2.31500 3.000
2.36000 1.000
2.40500 1.000
2.45000 4.000
2.49500 1.000
2.54000 3.000
2.58500 3.000
2.63000 1.000
2.67500 2.000
2.72000 3.000
2.76500 13.000
2.81000 29.000
2.85500 27.000
2.90000 76.000
2.94500 76.000
2.99000 100.000
3.03500 114.000
3.08000 115.000
3.12500 113.000
3.17000 109.000
3.21500 132.000
3.26000 122.000
3.30500 132.000
3.35000 131.000
3.39500 134.000
3.44000 134.000
3.48500 147.000
3.53000 160.000
3.57500 175.000
3.62000 169.000
3.66500 150.000
3.71000 167.000
3.75500 165.000
3.80000 175.000
3.84500 188.000
3.89000 175.000
3.93500 165.000
3.98000 170.000
4.02500 182.000
4.07000 201.000
4.11500 188.000
4.16000 187.000
4.20500 175.000
4.25000 204.000
4.29500 222.000
4.34000 198.000
4.38500 198.000
4.43000 212.000
4.47500 217.000
4.52000 211.000
4.56500 215.000
4.61000 231.000
4.65500 226.000
4.70000 226.000
4.74500 222.000
4.79000 234.000
4.83500 236.000
4.88000 230.000
4.92500 234.000
4.97000 228.000
5.01500 237.000
5.06000 247.000
5.10500 218.000
5.15000 263.000
5.19500 227.000
5.24000 245.000
5.28500 269.000
5.33000 235.000
5.37500 239.000
5.42000 246.000
5.46500 260.000
5.51000 273.000
5.55500 235.000
5.60000 257.000
5.64500 256.000
5.69000 261.000
5.73500 254.000
5.78000 257.000
5.82500 273.000
5.87000 269.000
5.91500 282.000
5.96000 261.000
6.00500 263.000
6.05000 262.000
6.09500 280.000
6.14000 280.000
6.18500 281.000
6.23000 272.000
6.27500 261.000
6.32000 289.000
6.36500 267.000
6.41000 278.000
6.45500 258.000
6.50000 276.000
6.54500 278.000
6.59000 288.000
6.63500 284.000
6.68000 267.000
6.72500 288.000
6.77000 293.000
6.81500 293.000
6.86000 278.000
6.90500 297.000
6.95000 295.000
6.99500 282.000
7.04000 270.000
7.08500 285.000
7.13000 305.000
7.17500 307.000
7.22000 278.000
7.26500 293.000
7.31000 289.000
7.35500 306.000
7.40000 290.000
7.44500 288.000
7.49000 297.000
7.53500 298.000
7.58000 303.000
7.62500 299.000
7.67000 295.000
7.71500 317.000
7.76000 301.000
7.80500 313.000
7.85000 276.000
7.89500 287.000
7.94000 290.000
7.98500 298.000
8.03000 311.000
8.07500 327.000
8.12000 293.000
8.16500 295.000
8.21000 291.000
8.25500 304.000
8.30000 302.000
8.34500 305.000
8.39000 287.000
8.43500 306.000
8.48000 288.000
8.52500 294.000
8.57000 294.000
8.61500 304.000
8.66000 293.000
8.70500 284.000
8.75000 330.000
8.79500 324.000
8.84000 296.000
8.88500 297.000
8.93000 318.000
8.97500 311.000
9.02000 294.000
9.06500 315.000
9.11000 293.000
9.15500 271.000
9.20000 293.000
9.24500 294.000
9.29000 302.000
9.33500 333.000
9.38000 313.000
9.42500 302.000
9.47000 314.000
9.51500 297.000
9.56000 311.000
9.60500 312.000
9.65000 294.000
9.69500 305.000
9.74000 311.000
9.78500 282.000
9.83000 309.000
9.87500 297.000
9.92000 279.000
9.96500 331.000
10.01000 336.000
10.05500 302.000
10.10000 333.000
10.14500 296.000
10.19000 319.000
10.23500 321.000
10.28000 281.000
10.32500 324.000
10.37000 275.000
10.41500 293.000
10.46000 310.000
10.50500 305.000
10.55000 309.000
10.59500 300.000
10.64000 316.000
10.68500 295.000
10.73000 333.000
10.77500 342.000
10.82000 288.000
10.86500 315.000
10.91000 330.000
10.95500 328.000
11.00000 318.000
11.04500 327.000
11.09000 307.000
11.13500 301.000
11.18000 322.000
11.22500 324.000
11.27000 307.000
11.31500 324.000
11.36000 340.000
11.40500 301.000
11.45000 295.000
11.49500 323.000
11.54000 327.000
11.58500 331.000
11.63000 308.000
11.67500 333.000
11.72000 323.000
11.76500 300.000
11.81000 325.000
11.85500 351.000
11.90000 321.000
11.94500 299.000
11.99000 328.000
12.03500 321.000
12.08000 327.000
12.12500 372.000
12.17000 423.000
12.21500 537.000
12.26000 458.000
12.30500 404.000
12.35000 324.000
12.39500 298.000
12.44000 326.000
12.48500 324.000
12.53000 326.000
12.57500 306.000
12.62000 326.000
12.66500 350.000
12.71000 347.000
12.75500 351.000
12.80000 340.000
12.84500 329.000
12.89000 333.000
12.93500 389.000
12.98000 461.000
13.02500 546.000
13.07000 1040.000
13.11500 1773.000
13.16000 1635.000
13.20500 490.000
13.25000 372.000
13.29500 329.000
13.34000 318.000
13.38500 326.000
13.43000 372.000
13.47500 337.000
13.52000 327.000
13.56500 274.000
13.61000 329.000
13.65500 309.000
13.70000 346.000
13.74500 291.000
13.79000 322.000
13.83500 310.000
13.88000 329.000
13.92500 340.000
13.97000 316.000
14.01500 336.000
14.06000 293.000
14.10500 341.000
14.15000 347.000
14.19500 323.000
14.24000 321.000
14.28500 319.000
14.33000 291.000
14.37500 338.000
14.42000 312.000
14.46500 346.000
14.51000 331.000
14.55500 339.000
14.60000 306.000
14.64500 326.000
14.69000 349.000
14.73500 380.000
14.78000 428.000
14.82500 678.000
14.87000 1274.000
14.91500 1669.000
14.96000 535.000
15.00500 377.000
15.05000 372.000
15.09500 379.000
15.14000 323.000
15.18500 318.000
15.23000 326.000
15.27500 314.000
15.32000 325.000
15.36500 332.000
15.41000 347.000
15.45500 341.000
15.50000 290.000
15.54500 330.000
15.59000 326.000
15.63500 312.000
15.68000 310.000
15.72500 328.000
15.77000 304.000
15.81500 317.000
15.86000 339.000
15.90500 307.000
15.95000 322.000
15.99500 315.000
16.04000 334.000
16.08500 354.000
16.13000 324.000
16.17500 336.000
16.22000 325.000
16.26500 301.000
16.31000 332.000
16.35500 327.000
16.40000 320.000
16.44500 311.000
16.49000 357.000
16.53500 340.000
16.58000 324.000
16.62500 320.000
16.67000 318.000
16.71500 312.000
16.76000 363.000
16.80500 317.000
16.85000 349.000
16.89500 339.000
16.94000 361.000
16.98500 337.000
17.03000 327.000
17.07500 334.000
17.12000 349.000
17.16500 342.000
17.21000 343.000
17.25500 337.000
17.30000 338.000
17.34500 422.000
17.39000 585.000
17.43500 953.000
17.48000 1872.000
17.52500 770.000
17.57000 720.000
17.61500 1315.000
17.66000 3219.000
17.70500 7781.000
17.75000 3456.000
17.79500 1007.000
17.84000 1428.000
17.88500 3513.000
17.93000 2871.000
17.97500 595.000
18.02000 427.000
18.06500 465.000
18.11000 524.000
18.15500 383.000
18.20000 345.000
18.24500 345.000
18.29000 333.000
18.33500 324.000
18.38000 333.000
18.42500 328.000
18.47000 307.000
18.51500 338.000
18.56000 322.000
18.60500 311.000
18.65000 342.000
18.69500 303.000
18.74000 363.000
18.78500 331.000
18.83000 320.000
18.87500 348.000
18.92000 352.000
18.96500 315.000
19.01000 344.000
19.05500 338.000
19.10000 341.000
19.14500 324.000
19.19000 351.000
19.23500 330.000
19.28000 308.000
19.32500 346.000
19.37000 347.000
19.41500 332.000
19.46000 383.000
19.50500 356.000
19.55000 353.000
19.59500 376.000
19.64000 361.000
19.68500 323.000
19.73000 357.000
19.77500 321.000
19.82000 338.000
19.86500 353.000
19.91000 341.000
19.95500 330.000
20.00000 347.000
20.04500 351.000
20.09000 334.000
20.13500 334.000
20.18000 335.000
20.22500 339.000
20.27000 332.000
20.31500 348.000
20.36000 353.000
20.40500 346.000
20.45000 341.000
20.49500 368.000
20.54000 344.000
20.58500 355.000
20.63000 314.000
20.67500 332.000
20.72000 354.000
20.76500 356.000
20.81000 346.000
20.85500 378.000
20.90000 360.000
20.94500 353.000
20.99000 342.000
21.03500 367.000
21.08000 365.000
21.12500 320.000
21.17000 361.000
21.21500 326.000
21.26000 330.000
21.30500 377.000
21.35000 372.000
21.39500 352.000
21.44000 420.000
21.48500 573.000
21.53000 796.000
21.57500 1054.000
21.62000 2293.000
21.66500 5704.000
21.71000 2929.000
21.75500 738.000
21.80000 467.000
21.84500 439.000
21.89000 447.000
21.93500 508.000
21.98000 808.000
22.02500 1818.000
22.07000 4336.000
22.11500 2404.000
22.16000 691.000
22.20500 487.000
22.25000 439.000
22.29500 369.000
22.34000 392.000
22.38500 368.000
22.43000 365.000
22.47500 359.000
22.52000 353.000
22.56500 359.000
22.61000 364.000
22.65500 346.000
22.70000 336.000
22.74500 335.000
22.79000 338.000
22.83500 334.000
22.88000 328.000
22.92500 358.000
22.97000 396.000
23.01500 384.000
23.06000 418.000
23.10500 358.000
23.15000 376.000
23.19500 351.000
23.24000 359.000
23.28500 343.000
23.33000 319.000
23.37500 350.000
23.42000 332.000
23.46500 331.000
23.51000 347.000
23.55500 327.000
23.60000 331.000
23.64500 330.000
23.69000 346.000
23.73500 375.000
23.78000 417.000
23.82500 358.000
23.87000 353.000
23.91500 370.000
23.96000 343.000
24.00500 339.000
24.05000 354.000
24.09500 351.000
24.14000 319.000
24.18500 321.000
24.23000 347.000
24.27500 344.000
24.32000 366.000
24.36500 348.000
24.41000 344.000
24.45500 354.000
24.50000 340.000
24.54500 346.000
24.59000 349.000
24.63500 371.000
24.68000 332.000
24.72500 349.000
24.77000 324.000
24.81500 353.000
24.86000 325.000
24.90500 346.000
24.95000 341.000
24.99500 352.000
25.04000 343.000
25.08500 382.000
25.13000 349.000
25.17500 368.000
25.22000 359.000
25.26500 335.000
25.31000 340.000
25.35500 376.000
25.40000 407.000
25.44500 532.000
25.49000 820.000
25.53500 480.000
25.58000 375.000
25.62500 390.000
25.67000 454.000
25.71500 814.000
25.76000 2032.000
25.80500 3800.000
25.85000 1050.000
25.89500 495.000
25.94000 419.000
25.98500 454.000
26.03000 564.000
26.07500 917.000
26.12000 2089.000
26.16500 6089.000
26.21000 11158.000
26.25500 3198.000
26.30000 1014.000
26.34500 735.000
26.39000 640.000
26.43500 883.000
26.48000 558.000
26.52500 412.000
26.57000 392.000
26.61500 386.000
26.66000 417.000
26.70500 367.000
26.75000 375.000
26.79500 344.000
26.84000 370.000
26.88500 361.000
26.93000 381.000
26.97500 466.000
27.02000 780.000
27.06500 2103.000
27.11000 5018.000
27.15500 1572.000
27.20000 605.000
27.24500 812.000
27.29000 691.000
27.33500 386.000
27.38000 361.000
27.42500 350.000
27.47000 352.000
27.51500 330.000
27.56000 339.000
27.60500 317.000
27.65000 339.000
27.69500 346.000
27.74000 381.000
27.78500 450.000
27.83000 442.000
27.87500 366.000
27.92000 364.000
27.96500 394.000
28.01000 433.000
28.05500 402.000
28.10000 397.000
28.14500 356.000
28.19000 308.000
28.23500 333.000
28.28000 341.000
28.32500 306.000
28.37000 320.000
28.41500 382.000
28.46000 368.000
28.50500 359.000
28.55000 382.000
28.59500 354.000
28.64000 403.000
28.68500 443.000
28.73000 792.000
28.77500 1787.000
28.82000 4787.000
28.86500 3704.000
28.91000 964.000
28.95500 498.000
29.00000 413.000
29.04500 430.000
29.09000 404.000
29.13500 302.000
29.18000 341.000
29.22500 329.000
29.27000 337.000
29.31500 336.000
29.36000 327.000
29.40500 299.000
29.45000 329.000
29.49500 345.000
29.54000 320.000
29.58500 337.000
29.63000 369.000
29.67500 429.000
29.72000 682.000
29.76500 1575.000
29.81000 4268.000
29.85500 3715.000
29.90000 950.000
29.94500 512.000
29.99000 410.000
30.03500 357.000
30.08000 338.000
30.12500 365.000
30.17000 379.000
30.21500 357.000
30.26000 329.000
30.30500 439.000
30.35000 655.000
30.39500 433.000
30.44000 319.000
30.48500 274.000
30.53000 283.000
30.57500 298.000
30.62000 289.000
30.66500 263.000
30.71000 273.000
30.75500 269.000
30.80000 309.000
30.84500 311.000
30.89000 300.000
30.93500 283.000
30.98000 295.000
31.02500 286.000
31.07000 269.000
31.11500 282.000
31.16000 338.000
31.20500 350.000
31.25000 274.000
31.29500 280.000
31.34000 285.000
31.38500 260.000
31.43000 257.000
31.47500 252.000
31.52000 278.000
31.56500 276.000
31.61000 271.000
31.65500 280.000
31.70000 276.000
31.74500 257.000
31.79000 279.000
31.83500 273.000
31.88000 258.000
31.92500 248.000
31.97000 237.000
32.01500 240.000
32.06000 239.000
32.10500 258.000
32.15000 246.000
32.19500 256.000
32.24000 256.000
32.28500 269.000
32.33000 248.000
32.37500 259.000
32.42000 244.000
32.46500 249.000
32.51000 266.000
32.55500 246.000
32.60000 242.000
32.64500 236.000
32.69000 241.000
32.73500 218.000
32.78000 222.000
32.82500 245.000
32.87000 253.000
32.91500 257.000
32.96000 272.000
33.00500 254.000
33.05000 245.000
33.09500 260.000
33.14000 235.000
33.18500 246.000
33.23000 269.000
33.27500 285.000
33.32000 296.000
33.36500 455.000
33.41000 734.000
33.45500 537.000
33.50000 300.000
33.54500 249.000
33.59000 273.000
33.63500 253.000
33.68000 268.000
33.72500 282.000
33.77000 329.000
33.81500 496.000
33.86000 730.000
33.90500 430.000
33.95000 276.000
33.99500 257.000
34.04000 217.000
34.08500 267.000
34.13000 226.000
34.17500 218.000
34.22000 259.000
34.26500 252.000
34.31000 292.000
34.35500 446.000
34.40000 412.000
34.44500 298.000
34.49000 239.000
34.53500 271.000
34.58000 261.000
34.62500 231.000
34.67000 203.000
34.71500 238.000
34.76000 211.000
34.80500 218.000
34.85000 236.000
34.89500 218.000
34.94000 241.000
34.98500 294.000
35.03000 483.000
35.07500 669.000
35.12000 368.000
35.16500 284.000
35.21000 211.000
35.25500 220.000
35.30000 207.000
35.34500 210.000
35.39000 215.000
35.43500 217.000
35.48000 195.000
35.52500 200.000
35.57000 202.000
35.61500 212.000
35.66000 233.000
35.70500 254.000
35.75000 338.000
35.79500 580.000
35.84000 1179.000
35.88500 818.000
35.93000 414.000
35.97500 390.000
36.02000 296.000
36.06500 233.000
36.11000 230.000
36.15500 295.000
36.20000 498.000
36.24500 1105.000
36.29000 693.000
36.33500 293.000
36.38000 272.000
36.42500 366.000
36.47000 780.000
36.51500 1071.000
36.56000 431.000
36.60500 353.000
36.65000 358.000
36.69500 267.000
36.74000 247.000
36.78500 309.000
36.83000 286.000
36.87500 223.000
36.92000 229.000
36.96500 199.000
37.01000 245.000
37.05500 258.000
37.10000 441.000
37.14500 966.000
37.19000 1177.000
37.23500 503.000
37.28000 258.000
37.32500 230.000
37.37000 217.000
37.41500 194.000
37.46000 194.000
37.50500 223.000
37.55000 235.000
37.59500 281.000
37.64000 490.000
37.68500 404.000
37.73000 228.000
37.77500 199.000
37.82000 203.000
37.86500 177.000
37.91000 208.000
37.95500 179.000
38.00000 182.000
38.04500 196.000
38.09000 187.000
38.13500 219.000
38.18000 217.000
38.22500 309.000
38.27000 497.000
38.31500 850.000
38.36000 2164.000
38.40500 1187.000
38.45000 351.000
38.49500 249.000
38.54000 233.000
38.58500 241.000
38.63000 290.000
38.67500 294.000
38.72000 213.000
38.76500 170.000
38.81000 187.000
38.85500 196.000
38.90000 171.000
38.94500 154.000
38.99000 168.000
39.03500 181.000
39.08000 187.000
39.12500 196.000
39.17000 186.000
39.21500 179.000
39.26000 177.000
39.30500 178.000
39.35000 153.000
39.39500 170.000
39.44000 188.000
39.48500 185.000
39.53000 200.000
39.57500 206.000
39.62000 203.000
39.66500 178.000
39.71000 188.000
39.75500 173.000
39.80000 157.000
39.84500 177.000
39.89000 192.000
39.93500 180.000
39.98000 184.000
40.02500 176.000
40.07000 210.000
40.11500 213.000
40.16000 180.000
40.20500 178.000
40.25000 182.000
40.29500 181.000
40.34000 161.000
40.38500 186.000
40.43000 181.000
40.47500 172.000
40.52000 228.000
40.56500 247.000
40.61000 238.000
40.65500 181.000
40.70000 165.000
40.74500 171.000
40.79000 167.000
40.83500 175.000
40.88000 217.000
40.92500 229.000
40.97000 381.000
41.01500 504.000
41.06000 284.000
41.10500 186.000
41.15000 175.000
41.19500 162.000
41.24000 186.000
41.28500 175.000
41.33000 155.000
41.37500 166.000
41.42000 175.000
41.46500 188.000
41.51000 187.000
41.55500 178.000
41.60000 172.000
41.64500 200.000
41.69000 209.000
41.73500 247.000
41.78000 348.000
41.82500 317.000
41.87000 223.000
41.91500 201.000
41.96000 237.000
42.00500 198.000
42.05000 181.000
42.09500 177.000
42.14000 173.000
42.18500 144.000
42.23000 175.000
42.27500 164.000
42.32000 160.000
42.36500 167.000
42.41000 176.000
42.45500 205.000
42.50000 284.000
42.54500 304.000
42.59000 207.000
42.63500 185.000
42.68000 174.000
42.72500 164.000
42.77000 174.000
42.81500 176.000
42.86000 166.000
42.90500 173.000
42.95000 166.000
42.99500 170.000
43.04000 165.000
43.08500 172.000
43.13000 163.000
43.17500 152.000
43.22000 178.000
43.26500 137.000
43.31000 167.000
43.35500 161.000
43.40000 176.000
43.44500 156.000
43.49000 180.000
43.53500 160.000
43.58000 174.000
43.62500 162.000
43.67000 156.000
43.71500 169.000
43.76000 195.000
43.80500 250.000
43.85000 202.000
43.89500 187.000
43.94000 221.000
43.98500 346.000
44.03000 378.000
44.07500 231.000
44.12000 208.000
44.16500 190.000
44.21000 175.000
44.25500 175.000
44.30000 158.000
44.34500 162.000
44.39000 162.000
44.43500 169.000
44.48000 169.000
44.52500 193.000
44.57000 168.000
44.61500 206.000
44.66000 206.000
44.70500 177.000
44.75000 196.000
44.79500 304.000
44.84000 666.000
44.88500 544.000
44.93000 296.000
44.97500 224.000
45.02000 231.000
45.06500 224.000
45.11000 194.000
45.15500 181.000
45.20000 216.000
45.24500 208.000
45.29000 179.000
45.33500 173.000
45.38000 179.000
45.42500 178.000
45.47000 234.000
45.51500 319.000
45.56000 271.000
45.60500 185.000
45.65000 195.000
45.69500 228.000
45.74000 290.000
45.78500 258.000
45.83000 182.000
45.87500 167.000
45.92000 177.000
45.96500 144.000
46.01000 163.000
46.05500 164.000
46.10000 178.000
46.14500 140.000
46.19000 169.000
46.23500 169.000
46.28000 207.000
46.32500 206.000
46.37000 185.000
46.41500 149.000
46.46000 156.000
46.50500 153.000
46.55000 164.000
46.59500 150.000
46.64000 146.000
46.68500 175.000
46.73000 186.000
46.77500 165.000
46.82000 189.000
46.86500 191.000
46.91000 178.000
46.95500 233.000
47.00000 357.000
47.04500 552.000
47.09000 355.000
47.13500 217.000
47.18000 196.000
47.22500 176.000
47.27000 171.000
47.31500 160.000
47.36000 176.000
47.40500 185.000
47.45000 230.000
47.49500 459.000
47.54000 1209.000
47.58500 1145.000
47.63000 444.000
47.67500 233.000
47.72000 186.000
47.76500 166.000
47.81000 167.000
47.85500 159.000
47.90000 169.000
47.94500 163.000
47.99000 167.000
48.03500 174.000
48.08000 175.000
48.12500 169.000
48.17000 192.000
48.21500 205.000
48.26000 305.000
48.30500 564.000
48.35000 495.000
48.39500 306.000
48.44000 189.000
48.48500 169.000
48.53000 181.000
48.57500 173.000
48.62000 160.000
48.66500 163.000
48.71000 149.000
48.75500 155.000
48.80000 161.000
48.84500 152.000
48.89000 158.000
48.93500 167.000
48.98000 164.000
49.02500 168.000
49.07000 144.000
49.11500 153.000
49.16000 166.000
49.20500 140.000
49.25000 161.000
49.29500 156.000
49.34000 149.000
49.38500 149.000
49.43000 149.000
49.47500 171.000
49.52000 167.000
49.56500 174.000
49.61000 205.000
49.65500 197.000
49.70000 162.000
49.74500 150.000
49.79000 138.000
49.83500 158.000
49.88000 138.000
49.92500 130.000
49.97000 151.000
50.01500 166.000
50.06000 194.000
50.10500 249.000
50.15000 253.000
50.19500 216.000
50.24000 291.000
50.28500 410.000
50.33000 463.000
50.37500 331.000
50.42000 375.000
50.46500 319.000
50.51000 201.000
50.55500 177.000
50.60000 156.000
50.64500 165.000
50.69000 143.000
50.73500 147.000
50.78000 162.000
50.82500 157.000
50.87000 174.000
50.91500 156.000
50.96000 167.000
51.00500 167.000
51.05000 142.000
51.09500 165.000
51.14000 162.000
51.18500 176.000
51.23000 177.000
51.27500 158.000
51.32000 162.000
51.36500 157.000
51.41000 144.000
51.45500 161.000
51.50000 153.000
51.54500 138.000
51.59000 173.000
51.63500 214.000
51.68000 258.000
51.72500 273.000
51.77000 211.000
51.81500 206.000
51.86000 222.000
51.90500 186.000
51.95000 144.000
51.99500 174.000
52.04000 152.000
52.08500 190.000
52.13000 187.000
52.17500 233.000
52.22000 275.000
52.26500 332.000
52.31000 288.000
52.35500 234.000
52.40000 170.000
52.44500 168.000
52.49000 185.000
52.53500 180.000
52.58000 162.000
52.62500 158.000
52.67000 213.000
52.71500 216.000
52.76000 186.000
52.80500 206.000
52.85000 220.000
52.89500 385.000
52.94000 601.000
52.98500 756.000
53.03000 636.000
53.07500 298.000
53.12000 220.000
53.16500 162.000
53.21000 176.000
53.25500 173.000
53.30000 150.000
53.34500 148.000
53.39000 155.000
53.43500 177.000
53.48000 139.000
53.52500 182.000
53.57000 179.000
53.61500 173.000
53.66000 209.000
53.70500 187.000
53.75000 168.000
53.79500 143.000
53.84000 163.000
53.88500 172.000
53.93000 170.000
53.97500 161.000
54.02000 156.000
54.06500 159.000
54.11000 163.000
54.15500 209.000
54.20000 214.000
54.24500 242.000
54.29000 176.000
54.33500 170.000
54.38000 171.000
54.42500 194.000
54.47000 265.000
54.51500 370.000
54.56000 298.000
54.60500 185.000
54.65000 201.000
54.69500 170.000
54.74000 208.000
54.78500 289.000
54.83000 422.000
54.87500 382.000
54.92000 280.000
54.96500 248.000
55.01000 243.000
55.05500 183.000
55.10000 205.000
55.14500 251.000
55.19000 439.000
55.23500 387.000
55.28000 266.000
55.32500 289.000
55.37000 437.000
55.41500 456.000
55.46000 294.000
55.50500 218.000
55.55000 287.000
55.59500 500.000
55.64000 688.000
55.68500 582.000
55.73000 333.000
55.77500 251.000
55.82000 235.000
55.86500 318.000
55.91000 307.000
55.95500 195.000
56.00000 184.000
56.04500 180.000
56.09000 168.000
56.13500 205.000
56.18000 340.000
56.22500 467.000
56.27000 321.000
56.31500 222.000
56.36000 176.000
56.40500 163.000
56.45000 136.000
56.49500 162.000
56.54000 190.000
56.58500 157.000
56.63000 227.000
56.67500 315.000
56.72000 291.000
56.76500 196.000
56.81000 181.000
56.85500 155.000
56.90000 151.000
56.94500 159.000
56.99000 152.000
57.03500 162.000
57.08000 159.000
57.12500 223.000
57.17000 340.000
57.21500 305.000
57.26000 198.000
57.30500 165.000
57.35000 178.000
57.39500 174.000
57.44000 163.000
57.48500 146.000
57.53000 148.000
57.57500 150.000
57.62000 157.000
57.66500 171.000
57.71000 200.000
57.75500 184.000
57.80000 153.000
57.84500 184.000
57.89000 170.000
57.93500 182.000
57.98000 163.000
58.02500 135.000
58.07000 153.000
58.11500 144.000
58.16000 153.000
58.20500 137.000
58.25000 150.000
58.29500 138.000
58.34000 143.000
58.38500 144.000
58.43000 149.000
58.47500 154.000
58.52000 156.000
58.56500 170.000
58.61000 152.000
58.65500 155.000
58.70000 139.000
58.74500 152.000
58.79000 142.000
58.83500 173.000
58.88000 189.000
58.92500 164.000
58.97000 159.000
59.01500 139.000
59.06000 135.000
59.10500 143.000
59.15000 158.000
59.19500 153.000
59.24000 172.000
59.28500 158.000
59.33000 154.000
59.37500 140.000
59.42000 148.000
59.46500 142.000
59.51000 123.000
59.55500 136.000
59.60000 152.000
59.64500 141.000
59.69000 130.000
59.73500 137.000
59.78000 149.000
59.82500 141.000
59.87000 155.000
59.91500 164.000
59.96000 207.000
60.00500 199.000
60.05000 187.000
60.09500 156.000
60.14000 152.000
60.18500 162.000
60.23000 140.000
60.27500 145.000
60.32000 140.000
60.36500 157.000
60.41000 147.000
60.45500 172.000
60.50000 173.000
60.54500 188.000
60.59000 225.000
60.63500 196.000
60.68000 147.000
60.72500 165.000
60.77000 131.000
60.81500 150.000
60.86000 135.000
60.90500 128.000
60.95000 139.000
60.99500 140.000
61.04000 127.000
61.08500 124.000
61.13000 135.000
61.17500 150.000
61.22000 140.000
61.26500 120.000
61.31000 140.000
61.35500 141.000
61.40000 149.000
61.44500 145.000
61.49000 117.000
61.53500 137.000
61.58000 126.000
61.62500 146.000
61.67000 140.000
61.71500 133.000
61.76000 145.000
61.80500 140.000
61.85000 160.000
61.89500 169.000
61.94000 215.000
61.98500 208.000