File: ISoD/xrd_data/HSC036_Blindprobe.xy
2.00000 2.000
2.04500 2.000
2.09000 5.000
2.13500 2.000
2.18000 2.000
2.22500 2.000
2.27000 3.000
2.31500 2.000
2.36000 4.000
2.40500 4.000
2.45000 2.000
2.49500 2.000
2.54000 2.000
2.58500 0.000
2.63000 3.000
2.67500 5.000
2.72000 7.000
2.76500 10.000
2.81000 19.000
2.85500 32.000
2.90000 66.000
2.94500 93.000
2.99000 133.000
3.03500 126.000
3.08000 129.000
3.12500 132.000
3.17000 151.000
3.21500 144.000
3.26000 140.000
3.30500 160.000
3.35000 159.000
3.39500 164.000
3.44000 172.000
3.48500 159.000
3.53000 157.000
3.57500 166.000
3.62000 176.000
3.66500 157.000
3.71000 175.000
3.75500 189.000
3.80000 188.000
3.84500 185.000
3.89000 179.000
3.93500 207.000
3.98000 189.000
4.02500 208.000
4.07000 181.000
4.11500 186.000
4.16000 200.000
4.20500 203.000
4.25000 209.000
4.29500 204.000
4.34000 194.000
4.38500 215.000
4.43000 221.000
4.47500 217.000
4.52000 206.000
4.56500 215.000
4.61000 191.000
4.65500 227.000
4.70000 213.000
4.74500 226.000
4.79000 233.000
4.83500 213.000
4.88000 219.000
4.92500 223.000
4.97000 223.000
5.01500 240.000
5.06000 234.000
5.10500 257.000
5.15000 234.000
5.19500 234.000
5.24000 234.000
5.28500 253.000
5.33000 242.000
5.37500 224.000
5.42000 220.000
5.46500 256.000
5.51000 252.000
5.55500 242.000
5.60000 234.000
5.64500 250.000
5.69000 248.000
5.73500 246.000
5.78000 228.000
5.82500 217.000
5.87000 237.000
5.91500 254.000
5.96000 263.000
6.00500 264.000
6.05000 228.000
6.09500 273.000
6.14000 259.000
6.18500 241.000
6.23000 249.000
6.27500 266.000
6.32000 258.000
6.36500 241.000
6.41000 250.000
6.45500 248.000
6.50000 259.000
6.54500 286.000
6.59000 278.000
6.63500 262.000
6.68000 252.000
6.72500 259.000
6.77000 249.000
6.81500 257.000
6.86000 253.000
6.90500 259.000
6.95000 280.000
6.99500 252.000
7.04000 281.000
7.08500 266.000
7.13000 259.000
7.17500 263.000
7.22000 282.000
7.26500 273.000
7.31000 263.000
7.35500 273.000
7.40000 292.000
7.44500 254.000
7.49000 286.000
7.53500 260.000
7.58000 274.000
7.62500 294.000
7.67000 280.000
7.71500 274.000
7.76000 267.000
7.80500 277.000
7.85000 286.000
7.89500 296.000
7.94000 281.000
7.98500 287.000
8.03000 272.000
8.07500 268.000
8.12000 286.000
8.16500 276.000
8.21000 276.000
8.25500 288.000
8.30000 290.000
8.34500 309.000
8.39000 280.000
8.43500 285.000
8.48000 291.000
8.52500 312.000
8.57000 306.000
8.61500 327.000
8.66000 361.000
8.70500 409.000
8.75000 459.000
8.79500 629.000
8.84000 845.000
8.88500 1291.000
8.93000 2141.000
8.97500 4577.000
9.02000 2407.000
9.06500 535.000
9.11000 409.000
9.15500 330.000
9.20000 348.000
9.24500 294.000
9.29000 337.000
9.33500 295.000
9.38000 353.000
9.42500 315.000
9.47000 373.000
9.51500 383.000
9.56000 315.000
9.60500 308.000
9.65000 300.000
9.69500 312.000
9.74000 303.000
9.78500 306.000
9.83000 284.000
9.87500 322.000
9.92000 269.000
9.96500 288.000
10.01000 304.000
10.05500 310.000
10.10000 348.000
10.14500 362.000
10.19000 430.000
10.23500 554.000
10.28000 748.000
10.32500 557.000
10.37000 328.000
10.41500 286.000
10.46000 287.000
10.50500 307.000
10.55000 297.000
10.59500 268.000
10.64000 296.000
10.68500 296.000
10.73000 301.000
10.77500 286.000
10.82000 282.000
10.86500 289.000
10.91000 301.000
10.95500 322.000
11.00000 298.000
11.04500 276.000
11.09000 282.000
11.13500 301.000
11.18000 295.000
11.22500 305.000
11.27000 277.000
11.31500 289.000
11.36000 283.000
11.40500 299.000
11.45000 301.000
11.49500 297.000
11.54000 293.000
11.58500 317.000
11.63000 304.000
11.67500 298.000
11.72000 343.000
11.76500 297.000
11.81000 335.000
11.85500 291.000
11.90000 307.000
11.94500 314.000
11.99000 299.000
12.03500 316.000
12.08000 326.000
12.12500 323.000
12.17000 298.000
12.21500 347.000
12.26000 370.000
12.30500 409.000
12.35000 509.000
12.39500 636.000
12.44000 590.000
12.48500 715.000
12.53000 1141.000
12.57500 2051.000
12.62000 4420.000
12.66500 8272.000
12.71000 2712.000
12.75500 677.000
12.80000 455.000
12.84500 363.000
12.89000 345.000
12.93500 349.000
12.98000 312.000
13.02500 311.000
13.07000 309.000
13.11500 303.000
13.16000 319.000
13.20500 312.000
13.25000 316.000
13.29500 314.000
13.34000 300.000
13.38500 318.000
13.43000 300.000
13.47500 302.000
13.52000 317.000
13.56500 272.000
13.61000 303.000
13.65500 297.000
13.70000 309.000
13.74500 286.000
13.79000 282.000
13.83500 280.000
13.88000 296.000
13.92500 293.000
13.97000 294.000
14.01500 295.000
14.06000 269.000
14.10500 294.000
14.15000 303.000
14.19500 340.000
14.24000 255.000
14.28500 293.000
14.33000 321.000
14.37500 277.000
14.42000 308.000
14.46500 293.000
14.51000 320.000
14.55500 303.000
14.60000 335.000
14.64500 404.000
14.69000 586.000
14.73500 922.000
14.78000 753.000
14.82500 378.000
14.87000 313.000
14.91500 317.000
14.96000 290.000
15.00500 313.000
15.05000 270.000
15.09500 306.000
15.14000 301.000
15.18500 313.000
15.23000 309.000
15.27500 279.000
15.32000 280.000
15.36500 307.000
15.41000 296.000
15.45500 327.000
15.50000 339.000
15.54500 385.000
15.59000 489.000
15.63500 701.000
15.68000 432.000
15.72500 305.000
15.77000 294.000
15.81500 273.000
15.86000 299.000
15.90500 282.000
15.95000 262.000
15.99500 294.000
16.04000 290.000
16.08500 280.000
16.13000 321.000
16.17500 309.000
16.22000 310.000
16.26500 273.000
16.31000 285.000
16.35500 293.000
16.40000 311.000
16.44500 286.000
16.49000 299.000
16.53500 293.000
16.58000 304.000
16.62500 288.000
16.67000 292.000
16.71500 287.000
16.76000 280.000
16.80500 294.000
16.85000 293.000
16.89500 261.000
16.94000 295.000
16.98500 295.000
17.03000 295.000
17.07500 302.000
17.12000 313.000
17.16500 308.000
17.21000 298.000
17.25500 323.000
17.30000 331.000
17.34500 337.000
17.39000 287.000
17.43500 288.000
17.48000 317.000
17.52500 302.000
17.57000 288.000
17.61500 302.000
17.66000 294.000
17.70500 310.000
17.75000 293.000
17.79500 311.000
17.84000 317.000
17.88500 336.000
17.93000 311.000
17.97500 422.000
18.02000 497.000
18.06500 365.000
18.11000 333.000
18.15500 297.000
18.20000 281.000
18.24500 302.000
18.29000 272.000
18.33500 294.000
18.38000 313.000
18.42500 297.000
18.47000 293.000
18.51500 288.000
18.56000 283.000
18.60500 295.000
18.65000 297.000
18.69500 287.000
18.74000 309.000
18.78500 315.000
18.83000 311.000
18.87500 303.000
18.92000 324.000
18.96500 282.000
19.01000 326.000
19.05500 310.000
19.10000 314.000
19.14500 304.000
19.19000 292.000
19.23500 335.000
19.28000 321.000
19.32500 320.000
19.37000 288.000
19.41500 308.000
19.46000 290.000
19.50500 299.000
19.55000 308.000
19.59500 302.000
19.64000 339.000
19.68500 304.000
19.73000 297.000
19.77500 300.000
19.82000 326.000
19.86500 290.000
19.91000 291.000
19.95500 317.000
20.00000 283.000
20.04500 291.000
20.09000 319.000
20.13500 330.000
20.18000 315.000
20.22500 319.000
20.27000 310.000
20.31500 319.000
20.36000 311.000
20.40500 310.000
20.45000 302.000
20.49500 313.000
20.54000 310.000
20.58500 349.000
20.63000 307.000
20.67500 314.000
20.72000 297.000
20.76500 302.000
20.81000 312.000
20.85500 309.000
20.90000 327.000
20.94500 312.000
20.99000 338.000
21.03500 292.000
21.08000 301.000
21.12500 316.000
21.17000 323.000
21.21500 308.000
21.26000 336.000
21.30500 341.000
21.35000 405.000
21.39500 501.000
21.44000 632.000
21.48500 382.000
21.53000 355.000
21.57500 326.000
21.62000 328.000
21.66500 348.000
21.71000 315.000
21.75500 329.000
21.80000 384.000
21.84500 359.000
21.89000 418.000
21.93500 541.000
21.98000 504.000
22.02500 349.000
22.07000 342.000
22.11500 310.000
22.16000 307.000
22.20500 306.000
22.25000 326.000
22.29500 308.000
22.34000 325.000
22.38500 311.000
22.43000 316.000
22.47500 324.000
22.52000 307.000
22.56500 312.000
22.61000 291.000
22.65500 301.000
22.70000 315.000
22.74500 355.000
22.79000 366.000
22.83500 349.000
22.88000 316.000
22.92500 337.000
22.97000 314.000
23.01500 349.000
23.06000 332.000
23.10500 351.000
23.15000 311.000
23.19500 349.000
23.24000 331.000
23.28500 333.000
23.33000 301.000
23.37500 301.000
23.42000 344.000
23.46500 335.000
23.51000 345.000
23.55500 355.000
23.60000 339.000
23.64500 345.000
23.69000 325.000
23.73500 352.000
23.78000 348.000
23.82500 338.000
23.87000 323.000
23.91500 340.000
23.96000 372.000
24.00500 477.000
24.05000 623.000
24.09500 1046.000
24.14000 969.000
24.18500 537.000
24.23000 414.000
24.27500 373.000
24.32000 406.000
24.36500 373.000
24.41000 378.000
24.45500 451.000
24.50000 639.000
24.54500 621.000
24.59000 463.000
24.63500 396.000
24.68000 436.000
24.72500 470.000
24.77000 462.000
24.81500 476.000
24.86000 452.000
24.90500 496.000
24.95000 525.000
24.99500 608.000
25.04000 773.000
25.08500 769.000
25.13000 992.000
25.17500 1786.000
25.22000 3341.000
25.26500 3714.000
25.31000 1766.000
25.35500 1067.000
25.40000 1074.000
25.44500 1653.000
25.49000 1897.000
25.53500 882.000
25.58000 556.000
25.62500 439.000
25.67000 404.000
25.71500 407.000
25.76000 376.000
25.80500 408.000
25.85000 508.000
25.89500 525.000
25.94000 416.000
25.98500 412.000
26.03000 392.000
26.07500 359.000
26.12000 383.000
26.16500 404.000
26.21000 364.000
26.25500 385.000
26.30000 378.000
26.34500 429.000
26.39000 501.000
26.43500 738.000
26.48000 1204.000
26.52500 1515.000
26.57000 851.000
26.61500 522.000
26.66000 468.000
26.70500 401.000
26.75000 391.000
26.79500 400.000
26.84000 404.000
26.88500 451.000
26.93000 507.000
26.97500 532.000
27.02000 437.000
27.06500 402.000
27.11000 411.000
27.15500 443.000
27.20000 419.000
27.24500 414.000
27.29000 437.000
27.33500 472.000
27.38000 492.000
27.42500 571.000
27.47000 706.000
27.51500 934.000
27.56000 1429.000
27.60500 2684.000
27.65000 6804.000
27.69500 14792.000
27.74000 7899.000
27.78500 1953.000
27.83000 919.000
27.87500 693.000
27.92000 613.000
27.96500 501.000
28.01000 460.000
28.05500 424.000
28.10000 411.000
28.14500 392.000
28.19000 424.000
28.23500 417.000
28.28000 396.000
28.32500 456.000
28.37000 447.000
28.41500 440.000
28.46000 400.000
28.50500 358.000
28.55000 338.000
28.59500 321.000
28.64000 323.000
28.68500 356.000
28.73000 387.000
28.77500 391.000
28.82000 507.000
28.86500 734.000
28.91000 1130.000
28.95500 1626.000
29.00000 1139.000
29.04500 661.000
29.09000 465.000
29.13500 368.000
29.18000 386.000
29.22500 336.000
29.27000 329.000
29.31500 299.000
29.36000 286.000
29.40500 315.000
29.45000 329.000
29.49500 350.000
29.54000 354.000
29.58500 364.000
29.63000 317.000
29.67500 303.000
29.72000 378.000
29.76500 403.000
29.81000 314.000
29.85500 290.000
29.90000 323.000
29.94500 306.000
29.99000 267.000
30.03500 280.000
30.08000 264.000
30.12500 280.000
30.17000 292.000
30.21500 325.000
30.26000 305.000
30.30500 289.000
30.35000 279.000
30.39500 317.000
30.44000 286.000
30.48500 310.000
30.53000 295.000
30.57500 279.000
30.62000 232.000
30.66500 254.000
30.71000 258.000
30.75500 289.000
30.80000 263.000
30.84500 263.000
30.89000 271.000
30.93500 258.000
30.98000 285.000
31.02500 248.000
31.07000 282.000
31.11500 268.000
31.16000 279.000
31.20500 288.000
31.25000 268.000
31.29500 270.000
31.34000 291.000
31.38500 265.000
31.43000 298.000
31.47500 334.000
31.52000 393.000
31.56500 369.000
31.61000 292.000
31.65500 275.000
31.70000 265.000
31.74500 234.000
31.79000 264.000
31.83500 252.000
31.88000 253.000
31.92500 261.000
31.97000 240.000
32.01500 224.000
32.06000 256.000
32.10500 245.000
32.15000 243.000
32.19500 236.000
32.24000 260.000
32.28500 230.000
32.33000 216.000
32.37500 209.000
32.42000 224.000
32.46500 231.000
32.51000 231.000
32.55500 225.000
32.60000 238.000
32.64500 235.000
32.69000 207.000
32.73500 238.000
32.78000 221.000
32.82500 227.000
32.87000 224.000
32.91500 212.000
32.96000 252.000
33.00500 256.000
33.05000 265.000
33.09500 229.000
33.14000 245.000
33.18500 203.000
33.23000 224.000
33.27500 224.000
33.32000 214.000
33.36500 215.000
33.41000 237.000
33.45500 233.000
33.50000 245.000
33.54500 260.000
33.59000 249.000
33.63500 235.000
33.68000 266.000
33.72500 283.000
33.77000 234.000
33.81500 223.000
33.86000 206.000
33.90500 209.000
33.95000 229.000
33.99500 237.000
34.04000 219.000
34.08500 208.000
34.13000 212.000
34.17500 218.000
34.22000 241.000
34.26500 297.000
34.31000 398.000
34.35500 527.000
34.40000 428.000
34.44500 261.000
34.49000 213.000
34.53500 208.000
34.58000 209.000
34.62500 216.000
34.67000 227.000
34.71500 217.000
34.76000 200.000
34.80500 201.000
34.85000 241.000
34.89500 248.000
34.94000 331.000
34.98500 382.000
35.03000 313.000
35.07500 236.000
35.12000 230.000
35.16500 242.000
35.21000 199.000
35.25500 197.000
35.30000 208.000
35.34500 177.000
35.39000 180.000
35.43500 200.000
35.48000 206.000
35.52500 173.000
35.57000 187.000
35.61500 183.000
35.66000 194.000
35.70500 187.000
35.75000 185.000
35.79500 196.000
35.84000 172.000
35.88500 176.000
35.93000 195.000
35.97500 177.000
36.02000 178.000
36.06500 180.000
36.11000 165.000
36.15500 191.000
36.20000 162.000
36.24500 194.000
36.29000 155.000
36.33500 201.000
36.38000 166.000
36.42500 170.000
36.47000 184.000
36.51500 168.000
36.56000 188.000
36.60500 159.000
36.65000 188.000
36.69500 187.000
36.74000 190.000
36.78500 165.000
36.83000 160.000
36.87500 168.000
36.92000 167.000
36.96500 152.000
37.01000 158.000
37.05500 171.000
37.10000 171.000
37.14500 178.000
37.19000 164.000
37.23500 188.000
37.28000 158.000
37.32500 175.000
37.37000 193.000
37.41500 184.000
37.46000 198.000
37.50500 185.000
37.55000 174.000
37.59500 184.000
37.64000 161.000
37.68500 167.000
37.73000 176.000
37.77500 212.000
37.82000 202.000
37.86500 185.000
37.91000 178.000
37.95500 162.000
38.00000 170.000
38.04500 175.000
38.09000 161.000
38.13500 137.000
38.18000 178.000
38.22500 173.000
38.27000 165.000
38.31500 173.000
38.36000 174.000
38.40500 165.000
38.45000 161.000
38.49500 165.000
38.54000 194.000
38.58500 193.000
38.63000 193.000
38.67500 191.000
38.72000 181.000
38.76500 177.000
38.81000 181.000
38.85500 215.000
38.90000 280.000
38.94500 280.000
38.99000 202.000
39.03500 201.000
39.08000 175.000
39.12500 170.000
39.17000 169.000
39.21500 158.000
39.26000 157.000
39.30500 157.000
39.35000 173.000
39.39500 156.000
39.44000 178.000
39.48500 170.000
39.53000 166.000
39.57500 138.000
39.62000 158.000
39.66500 147.000
39.71000 176.000
39.75500 183.000
39.80000 215.000
39.84500 279.000
39.89000 208.000
39.93500 192.000
39.98000 191.000
40.02500 179.000
40.07000 163.000
40.11500 153.000
40.16000 159.000
40.20500 157.000
40.25000 183.000
40.29500 174.000
40.34000 189.000
40.38500 206.000
40.43000 201.000
40.47500 178.000
40.52000 185.000
40.56500 173.000
40.61000 193.000
40.65500 208.000
40.70000 225.000
40.74500 227.000
40.79000 181.000
40.83500 166.000
40.88000 151.000
40.92500 188.000
40.97000 186.000
41.01500 186.000
41.06000 188.000
41.10500 186.000
41.15000 185.000
41.19500 208.000
41.24000 206.000
41.28500 229.000
41.33000 207.000
41.37500 168.000
41.42000 189.000
41.46500 176.000
41.51000 190.000
41.55500 198.000
41.60000 325.000
41.64500 435.000
41.69000 344.000
41.73500 261.000
41.78000 193.000
41.82500 177.000
41.87000 201.000
41.91500 199.000
41.96000 194.000
42.00500 228.000
42.05000 212.000
42.09500 174.000
42.14000 164.000
42.18500 208.000
42.23000 238.000
42.27500 349.000
42.32000 489.000
42.36500 367.000
42.41000 259.000
42.45500 218.000
42.50000 189.000
42.54500 172.000
42.59000 182.000
42.63500 184.000
42.68000 178.000
42.72500 200.000
42.77000 173.000
42.81500 152.000
42.86000 169.000
42.90500 157.000
42.95000 171.000
42.99500 177.000
43.04000 181.000
43.08500 189.000
43.13000 181.000
43.17500 182.000
43.22000 179.000
43.26500 198.000
43.31000 182.000
43.35500 170.000
43.40000 171.000
43.44500 173.000
43.49000 180.000
43.53500 209.000
43.58000 301.000
43.62500 412.000
43.67000 385.000
43.71500 253.000
43.76000 212.000
43.80500 156.000
43.85000 173.000
43.89500 145.000
43.94000 171.000
43.98500 171.000
44.03000 153.000
44.07500 162.000
44.12000 150.000
44.16500 144.000
44.21000 155.000
44.25500 154.000
44.30000 152.000
44.34500 141.000
44.39000 150.000
44.43500 150.000
44.48000 135.000
44.52500 153.000
44.57000 149.000
44.61500 162.000
44.66000 187.000
44.70500 180.000
44.75000 217.000
44.79500 307.000
44.84000 403.000
44.88500 416.000
44.93000 287.000
44.97500 237.000
45.02000 198.000
45.06500 175.000
45.11000 181.000
45.15500 151.000
45.20000 173.000
45.24500 166.000
45.29000 168.000
45.33500 159.000
45.38000 169.000
45.42500 170.000
45.47000 199.000
45.51500 198.000
45.56000 171.000
45.60500 155.000
45.65000 162.000
45.69500 155.000
45.74000 158.000
45.78500 156.000
45.83000 144.000
45.87500 167.000
45.92000 148.000
45.96500 161.000
46.01000 178.000
46.05500 229.000
46.10000 268.000
46.14500 304.000
46.19000 275.000
46.23500 217.000
46.28000 184.000
46.32500 163.000
46.37000 160.000
46.41500 169.000
46.46000 146.000
46.50500 157.000
46.55000 160.000
46.59500 172.000
46.64000 137.000
46.68500 136.000
46.73000 138.000
46.77500 147.000
46.82000 137.000
46.86500 138.000
46.91000 169.000
46.95500 133.000
47.00000 123.000
47.04500 147.000
47.09000 144.000
47.13500 146.000
47.18000 146.000
47.22500 131.000
47.27000 148.000
47.31500 141.000
47.36000 135.000
47.40500 137.000
47.45000 144.000
47.49500 152.000
47.54000 153.000
47.58500 147.000
47.63000 167.000
47.67500 143.000
47.72000 181.000
47.76500 173.000
47.81000 237.000
47.85500 212.000
47.90000 197.000
47.94500 157.000
47.99000 202.000
48.03500 208.000
48.08000 241.000
48.12500 286.000
48.17000 291.000
48.21500 256.000
48.26000 212.000
48.30500 187.000
48.35000 154.000
48.39500 150.000
48.44000 127.000
48.48500 149.000
48.53000 139.000
48.57500 141.000
48.62000 127.000
48.66500 139.000
48.71000 149.000
48.75500 121.000
48.80000 135.000
48.84500 151.000
48.89000 152.000
48.93500 138.000
48.98000 125.000
49.02500 148.000
49.07000 148.000
49.11500 138.000
49.16000 133.000
49.20500 159.000
49.25000 152.000
49.29500 161.000
49.34000 173.000
49.38500 145.000
49.43000 138.000
49.47500 140.000
49.52000 136.000
49.56500 141.000
49.61000 138.000
49.65500 113.000
49.70000 151.000
49.74500 123.000
49.79000 120.000
49.83500 140.000
49.88000 134.000
49.92500 146.000
49.97000 125.000
50.01500 134.000
50.06000 139.000
50.10500 125.000
50.15000 167.000
50.19500 161.000
50.24000 213.000
50.28500 197.000
50.33000 166.000
50.37500 162.000
50.42000 149.000
50.46500 142.000
50.51000 126.000
50.55500 124.000
50.60000 142.000
50.64500 130.000
50.69000 142.000
50.73500 131.000
50.78000 130.000
50.82500 134.000
50.87000 132.000
50.91500 153.000
50.96000 170.000
51.00500 139.000
51.05000 167.000
51.09500 179.000
51.14000 165.000
51.18500 172.000
51.23000 163.000
51.27500 151.000
51.32000 160.000
51.36500 146.000
51.41000 155.000
51.45500 158.000
51.50000 160.000
51.54500 179.000
51.59000 159.000
51.63500 185.000
51.68000 201.000
51.72500 205.000
51.77000 231.000
51.81500 215.000
51.86000 222.000
51.90500 172.000
51.95000 171.000
51.99500 162.000
52.04000 163.000
52.08500 175.000
52.13000 145.000
52.17500 192.000
52.22000 240.000
52.26500 248.000
52.31000 227.000
52.35500 210.000
52.40000 167.000
52.44500 161.000
52.49000 156.000
52.53500 146.000
52.58000 158.000
52.62500 177.000
52.67000 200.000
52.71500 228.000
52.76000 309.000
52.80500 388.000
52.85000 387.000
52.89500 296.000
52.94000 211.000
52.98500 188.000
53.03000 168.000
53.07500 161.000
53.12000 167.000
53.16500 200.000
53.21000 187.000
53.25500 195.000
53.30000 178.000
53.34500 149.000
53.39000 168.000
53.43500 154.000
53.48000 144.000
53.52500 133.000
53.57000 145.000
53.61500 154.000
53.66000 123.000
53.70500 143.000
53.75000 158.000
53.79500 173.000
53.84000 160.000
53.88500 150.000
53.93000 149.000
53.97500 140.000
54.02000 126.000
54.06500 134.000
54.11000 141.000
54.15500 150.000
54.20000 135.000
54.24500 143.000
54.29000 131.000
54.33500 132.000
54.38000 130.000
54.42500 150.000
54.47000 138.000
54.51500 144.000
54.56000 146.000
54.60500 142.000
54.65000 156.000
54.69500 180.000
54.74000 154.000
54.78500 138.000
54.83000 137.000
54.87500 154.000
54.92000 154.000
54.96500 174.000
55.01000 217.000
55.05500 190.000
55.10000 167.000
55.14500 132.000
55.19000 139.000
55.23500 158.000
55.28000 129.000
55.32500 130.000
55.37000 136.000
55.41500 136.000
55.46000 149.000
55.50500 181.000
55.55000 170.000
55.59500 147.000
55.64000 154.000
55.68500 148.000
55.73000 129.000
55.77500 133.000
55.82000 134.000
55.86500 143.000
55.91000 143.000
55.95500 145.000
56.00000 153.000
56.04500 151.000
56.09000 150.000
56.13500 129.000
56.18000 139.000
56.22500 130.000
56.27000 155.000
56.31500 128.000
56.36000 139.000
56.40500 126.000
56.45000 146.000
56.49500 143.000
56.54000 138.000
56.58500 137.000
56.63000 150.000
56.67500 142.000
56.72000 119.000
56.76500 124.000
56.81000 134.000
56.85500 140.000
56.90000 142.000
56.94500 152.000
56.99000 171.000
57.03500 172.000
57.08000 191.000
57.12500 249.000
57.17000 341.000
57.21500 333.000
57.26000 232.000
57.30500 178.000
57.35000 144.000
57.39500 137.000
57.44000 126.000
57.48500 137.000
57.53000 136.000
57.57500 143.000
57.62000 133.000
57.66500 108.000
57.71000 142.000
57.75500 140.000
57.80000 136.000
57.84500 138.000
57.89000 154.000
57.93500 132.000
57.98000 120.000
58.02500 133.000
58.07000 130.000
58.11500 150.000
58.16000 139.000
58.20500 168.000
58.25000 165.000
58.29500 168.000
58.34000 150.000
58.38500 157.000
58.43000 119.000
58.47500 126.000
58.52000 110.000
58.56500 132.000
58.61000 119.000
58.65500 147.000
58.70000 143.000
58.74500 139.000
58.79000 162.000
58.83500 160.000
58.88000 176.000
58.92500 148.000
58.97000 170.000
59.01500 134.000
59.06000 144.000
59.10500 120.000
59.15000 132.000
59.19500 144.000
59.24000 128.000
59.28500 110.000
59.33000 140.000
59.37500 127.000
59.42000 129.000
59.46500 117.000
59.51000 139.000
59.55500 127.000
59.60000 131.000
59.64500 128.000
59.69000 127.000
59.73500 105.000
59.78000 129.000
59.82500 136.000
59.87000 119.000
59.91500 123.000
59.96000 119.000
60.00500 141.000
60.05000 126.000
60.09500 102.000
60.14000 112.000
60.18500 129.000
60.23000 118.000
60.27500 114.000
60.32000 116.000
60.36500 111.000
60.41000 120.000
60.45500 124.000
60.50000 103.000
60.54500 114.000
60.59000 112.000
60.63500 121.000
60.68000 127.000
60.72500 112.000
60.77000 126.000
60.81500 116.000
60.86000 129.000
60.90500 128.000
60.95000 113.000
60.99500 110.000
61.04000 127.000
61.08500 109.000
61.13000 130.000
61.17500 122.000
61.22000 124.000
61.26500 128.000
61.31000 126.000
61.35500 151.000
61.40000 132.000
61.44500 128.000
61.49000 141.000
61.53500 110.000
61.58000 135.000
61.62500 128.000
61.67000 128.000
61.71500 118.000
61.76000 134.000
61.80500 139.000
61.85000 129.000
61.89500 120.000
61.94000 124.000
61.98500 128.000