File: ISoD/xrd_data/HSC026_nach410C_ranges_combined.xy
2.0 1460.0
2.045 1376.0
2.09 1276.0
2.135 1226.0
2.18 1126.0
2.225 1128.0
2.27 989.0
2.315 964.0
2.36 879.0
2.405 873.0
2.45 858.0
2.495 785.0
2.54 750.0
2.585 737.0
2.63 682.0
2.675 703.0
2.72 622.0
2.765 643.0
2.81 588.0
2.855 573.0
2.9 579.0
2.945 553.0
2.99 539.0
3.035 536.0
3.08 505.0
3.125 530.0
3.17 494.0
3.215 480.0
3.26 466.0
3.305 462.0
3.35 483.0
3.395 423.0
3.44 406.0
3.485 435.0
3.53 433.0
3.575 380.0
3.62 408.0
3.665 394.0
3.71 405.0
3.755 401.0
3.8 384.0
3.845 376.0
3.89 401.0
3.935 384.0
3.98 367.0
4.025 385.0
4.07 387.0
4.115 372.0
4.16 388.0
4.205 362.0
4.25 361.0
4.295 355.0
4.34 370.0
4.385 373.0
4.43 364.0
4.475 350.0
4.52 353.0
4.565 365.0
4.61 342.0
4.655 317.0
4.7 316.0
4.745 332.0
4.79 309.0
4.835 348.0
4.88 326.0
4.925 365.0
4.97 363.0
5.015 323.0
5.06 353.0
5.105 317.0
5.15 329.0
5.195 338.0
5.24 308.0
5.285 346.0
5.33 312.0
5.375 341.0
5.42 367.0
5.465 312.0
5.51 342.0
5.555 335.0
5.6 320.0
5.645 346.0
5.69 314.0
5.735 346.0
5.78 382.0
5.825 345.0
5.87 345.0
5.915 314.0
5.96 362.0
6.005 346.0
6.05 362.0
6.095 342.0
6.14 301.0
6.185 346.0
6.23 335.0
6.275 339.0
6.32 370.0
6.365 310.0
6.41 341.0
6.455 330.0
6.5 369.0
6.545 365.0
6.59 352.0
6.635 335.0
6.68 335.0
6.725 336.0
6.77 330.0
6.815 339.0
6.86 323.0
6.905 337.0
6.95 312.0
6.995 341.0
7.04 348.0
7.085 329.0
7.13 334.0
7.175 369.0
7.22 368.0
7.265 331.0
7.31 323.0
7.355 360.0
7.4 342.0
7.445 345.0
7.49 348.0
7.535 343.0
7.58 338.0
7.625 354.0
7.67 337.0
7.715 362.0
7.76 344.0
7.805 318.0
7.85 334.0
7.895 341.0
7.94 373.0
7.985 345.0
8.03 361.0
8.075 356.0
8.12 395.0
8.165 375.0
8.21 363.0
8.255 380.0
8.3 386.0
8.345 441.0
8.39 453.0
8.435 471.0
8.48 470.0
8.525 497.0
8.57 456.0
8.615 498.0
8.66 501.0
8.705 483.0
8.75 469.0
8.795 421.0
8.84 418.0
8.885 418.0
8.93 387.0
8.975 392.0
9.02 355.0
9.065 329.0
9.11 354.0
9.155 361.0
9.2 367.0
9.245 365.0
9.29 353.0
9.335 344.0
9.38 329.0
9.425 351.0
9.47 370.0
9.515 339.0
9.56 353.0
9.605 361.0
9.65 349.0
9.695 371.0
9.74 329.0
9.785 363.0
9.83 344.0
9.875 356.0
9.92 369.0
9.965 381.0
10.01 406.0
10.055 399.0
10.1 416.0
10.145 367.0
10.19 373.0
10.235 385.0
10.28 338.0
10.325 354.0
10.37 348.0
10.415 389.0
10.46 361.0
10.505 379.0
10.55 368.0
10.595 360.0
10.64 403.0
10.685 385.0
10.73 387.0
10.775 393.0
10.82 380.0
10.865 370.0
10.91 425.0
10.955 414.0
11.0 435.0
11.045 459.0
11.09 465.0
11.135 515.0
11.18 535.0
11.225 635.0
11.27 605.0
11.315 711.0
11.36 819.0
11.405 939.0
11.45 1020.0
11.495 1214.0
11.54 1326.0
11.585 1324.0
11.63 1255.0
11.675 1096.0
11.72 1011.0
11.765 904.0
11.81 872.0
11.855 813.0
11.9 803.0
11.945 789.0
11.99 712.0
12.035 632.0
12.08 508.0
12.125 405.0
12.17 410.0
12.215 389.0
12.26 383.0
12.305 390.0
12.35 362.0
12.395 380.0
12.44 374.0
12.485 388.0
12.53 383.0
12.575 402.0
12.62 400.0
12.665 417.0
12.71 403.0
12.755 408.0
12.8 477.0
12.845 488.0
12.89 513.0
12.935 472.0
12.98 486.0
13.025 495.0
13.07 444.0
13.115 434.0
13.16 424.0
13.205 427.0
13.25 442.0
13.295 450.0
13.34 405.0
13.385 427.0
13.43 398.0
13.475 398.0
13.52 358.0
13.565 369.0
13.61 385.0
13.655 354.0
13.7 362.0
13.745 347.0
13.79 328.0
13.835 360.0
13.88 345.0
13.925 375.0
13.97 347.0
14.015 362.0
14.06 357.0
14.105 324.0
14.15 368.0
14.195 361.0
14.24 361.0
14.285 334.0
14.33 353.0
14.375 337.0
14.42 331.0
14.465 309.0
14.51 335.0
14.555 369.0
14.6 315.0
14.645 325.0
14.69 346.0
14.735 320.0
14.78 342.0
14.825 331.0
14.87 332.0
14.915 324.0
14.96 347.0
15.005 358.0
15.05 326.0
15.095 330.0
15.14 346.0
15.185 340.0
15.23 320.0
15.275 328.0
15.32 324.0
15.365 332.0
15.41 311.0
15.455 345.0
15.5 353.0
15.545 331.0
15.59 354.0
15.635 322.0
15.68 387.0
15.725 330.0
15.77 337.0
15.815 347.0
15.86 353.0
15.905 341.0
15.95 318.0
15.995 336.0
16.04 360.0
16.085 347.0
16.13 369.0
16.175 317.0
16.22 399.0
16.265 364.0
16.31 365.0
16.355 352.0
16.4 335.0
16.445 331.0
16.49 357.0
16.535 355.0
16.58 336.0
16.625 327.0
16.67 375.0
16.715 336.0
16.76 345.0
16.805 333.0
16.85 341.0
16.895 356.0
16.94 381.0
16.985 353.0
17.03 365.0
17.075 369.0
17.12 339.0
17.165 384.0
17.21 344.0
17.255 343.0
17.3 364.0
17.345 340.0
17.39 370.0
17.435 350.0
17.48 372.0
17.525 347.0
17.57 367.0
17.615 381.0
17.66 324.0
17.705 360.0
17.75 381.0
17.795 319.0
17.84 379.0
17.885 368.0
17.93 347.0
17.975 383.0
18.02 348.0
18.065 379.0
18.11 381.0
18.155 371.0
18.2 404.0
18.245 386.0
18.29 364.0
18.335 409.0
18.38 382.0
18.425 393.0
18.47 368.0
18.515 436.0
18.56 397.0
18.605 392.0
18.65 406.0
18.695 415.0
18.74 398.0
18.785 410.0
18.83 410.0
18.875 422.0
18.92 404.0
18.965 377.0
19.01 374.0
19.055 423.0
19.1 392.0
19.145 400.0
19.19 431.0
19.235 417.0
19.28 406.0
19.325 410.0
19.37 401.0
19.415 425.0
19.46 432.0
19.505 387.0
19.55 419.0
19.595 443.0
19.64 420.0
19.685 421.0
19.73 414.0
19.775 425.0
19.82 437.0
19.865 430.0
19.91 429.0
19.955 429.0
20.0 425.0
20.045 447.0
20.09 414.0
20.135 442.0
20.18 431.0
20.225 424.0
20.27 431.0
20.315 450.0
20.36 450.0
20.405 426.0
20.45 417.0
20.495 430.0
20.54 443.0
20.585 411.0
20.63 409.0
20.675 431.0
20.72 437.0
20.765 438.0
20.81 455.0
20.855 427.0
20.9 416.0
20.945 448.0
20.99 415.0
21.035 432.0
21.08 444.0
21.125 420.0
21.17 428.0
21.215 448.0
21.26 434.0
21.305 430.0
21.35 468.0
21.395 411.0
21.44 421.0
21.485 451.0
21.53 450.0
21.575 428.0
21.62 422.0
21.665 460.0
21.71 453.0
21.755 431.0
21.8 461.0
21.845 410.0
21.89 434.0
21.935 463.0
21.98 437.0
22.025 439.0
22.07 467.0
22.115 461.0
22.16 443.0
22.205 456.0
22.25 448.0
22.295 454.0
22.34 472.0
22.385 458.0
22.43 452.0
22.475 481.0
22.52 448.0
22.565 451.0
22.61 457.0
22.655 451.0
22.7 467.0
22.745 456.0
22.79 475.0
22.835 492.0
22.88 472.0
22.925 463.0
22.97 483.0
23.015 512.0
23.06 476.0
23.105 522.0
23.15 502.0
23.195 543.0
23.24 496.0
23.285 489.0
23.33 499.0
23.375 496.0
23.42 514.0
23.465 498.0
23.51 514.0
23.555 529.0
23.6 503.0
23.645 500.0
23.69 512.0
23.735 507.0
23.78 552.0
23.825 526.0
23.87 516.0
23.915 505.0
23.96 537.0
24.005 503.0
24.05 521.0
24.095 521.0
24.14 556.0
24.185 531.0
24.23 534.0
24.275 562.0
24.32 516.0
24.365 556.0
24.41 571.0
24.455 538.0
24.5 523.0
24.545 596.0
24.59 554.0
24.635 561.0
24.68 604.0
24.725 620.0
24.77 612.0
24.815 636.0
24.86 627.0
24.905 654.0
24.95 675.0
24.995 737.0
25.04 670.0
25.085 739.0
25.13 774.0
25.175 825.0
25.22 796.0
25.265 831.0
25.31 848.0
25.355 922.0
25.4 1001.0
25.445 993.0
25.49 1126.0
25.535 1144.0
25.58 1169.0
25.625 1134.0
25.67 1070.0
25.715 1067.0
25.76 907.0
25.805 881.0
25.85 892.0
25.895 827.0
25.94 715.0
25.985 767.0
26.03 728.0
26.075 699.0
26.12 721.0
26.165 677.0
26.21 734.0
26.255 718.0
26.3 671.0
26.345 708.0
26.39 701.0
26.435 729.0
26.48 747.0
26.525 734.0
26.57 700.0
26.615 765.0
26.66 709.0
26.705 712.0
26.75 731.0
26.795 724.0
26.84 731.0
26.885 752.0
26.93 771.0
26.975 801.0
27.02 898.0
27.065 965.0
27.11 954.0
27.155 1038.0
27.2 1044.0
27.245 1123.0
27.29 1122.0
27.335 1150.0
27.38 1171.0
27.425 1238.0
27.47 1238.0
27.515 1230.0
27.56 1212.0
27.605 1128.0
27.65 1068.0
27.695 941.0
27.74 828.0
27.785 734.0
27.83 687.0
27.875 629.0
27.92 643.0
27.965 592.0
28.01 567.0
28.055 558.0
28.1 549.0
28.145 492.0
28.19 519.0
28.235 512.0
28.28 481.0
28.325 460.0
28.37 437.0
28.415 444.0
28.46 514.0
28.505 444.0
28.55 432.0
28.595 447.0
28.64 448.0
28.685 459.0
28.73 428.0
28.775 446.0
28.82 457.0
28.865 430.0
28.91 412.0
28.955 408.0
29.0 390.0
29.045 444.0
29.09 431.0
29.135 413.0
29.18 414.0
29.225 401.0
29.27 437.0
29.315 422.0
29.36 420.0
29.405 446.0
29.45 424.0
29.495 406.0
29.54 409.0
29.585 410.0
29.63 407.0
29.675 400.0
29.72 431.0
29.765 430.0
29.81 436.0
29.855 426.0
29.9 407.0
29.945 413.0
29.99 431.0
30.035 424.0
30.08 412.0
30.125 429.0
30.17 437.0
30.215 464.0
30.26 477.0
30.305 456.0
30.35 486.0
30.395 519.0
30.44 528.0
30.485 526.0
30.53 463.0
30.575 462.0
30.62 442.0
30.665 452.0
30.71 444.0
30.755 432.0
30.8 428.0
30.845 434.0
30.89 435.0
30.935 420.0
30.98 374.0
31.025 377.0
31.07 391.0
31.115 391.0
31.16 419.0
31.205 353.0
31.25 384.0
31.295 355.0
31.34 356.0
31.385 329.0
31.43 355.0
31.475 354.0
31.52 377.0
31.565 339.0
31.61 366.0
31.655 343.0
31.7 348.0
31.745 333.0
31.79 356.0
31.835 337.0
31.88 343.0
31.925 338.0
31.97 333.0
32.015 327.0
32.06 337.0
32.105 331.0
32.15 348.0
32.195 332.0
32.24 336.0
32.285 332.0
32.33 330.0
32.375 315.0
32.42 315.0
32.465 304.0
32.51 314.0
32.555 327.0
32.6 334.0
32.645 306.0
32.69 321.0
32.735 327.0
32.78 296.0
32.825 317.0
32.87 325.0
32.915 287.0
32.96 324.0
33.005 305.0
33.05 288.0
33.095 287.0
33.14 280.0
33.185 325.0
33.23 306.0
33.275 299.0
33.32 332.0
33.365 295.0
33.41 300.0
33.455 319.0
33.5 306.0
33.545 324.0
33.59 303.0
33.635 263.0
33.68 297.0
33.725 301.0
33.77 288.0
33.815 296.0
33.86 293.0
33.905 294.0
33.95 280.0
33.995 288.0
34.04 285.0
34.085 281.0
34.13 286.0
34.175 286.0
34.22 258.0
34.265 282.0
34.31 303.0
34.355 267.0
34.4 284.0
34.445 265.0
34.49 294.0
34.535 277.0
34.58 283.0
34.625 279.0
34.67 281.0
34.715 293.0
34.76 290.0
34.805 269.0
34.85 266.0
34.895 268.0
34.94 278.0
34.985 258.0
35.03 296.0
35.075 267.0
35.12 269.0
35.165 252.0
35.21 284.0
35.255 272.0
35.3 271.0
35.345 256.0
35.39 239.0
35.435 246.0
35.48 248.0
35.525 269.0
35.57 262.0
35.615 270.0
35.66 246.0
35.705 232.0
35.75 258.0
35.795 234.0
35.84 241.0
35.885 235.0
35.93 226.0
35.975 253.0
36.02 238.0
36.065 225.0
36.11 246.0
36.155 245.0
36.2 238.0
36.245 235.0
36.29 263.0
36.335 234.0
36.38 223.0
36.425 262.0
36.47 236.0
36.515 238.0
36.56 224.0
36.605 201.0
36.65 240.0
36.695 227.0
36.74 241.0
36.785 226.0
36.83 233.0
36.875 209.0
36.92 228.0
36.965 224.0
37.01 210.0
37.055 217.0
37.1 246.0
37.145 219.0
37.19 222.0
37.235 219.0
37.28 219.0
37.325 235.0
37.37 213.0
37.415 204.0
37.46 229.0
37.505 209.0
37.55 226.0
37.595 216.0
37.64 207.0
37.685 212.0
37.73 234.0
37.775 212.0
37.82 231.0
37.865 202.0
37.91 215.0
37.955 222.0
38.0 230.0
38.045 231.0
38.09 215.0
38.135 197.0
38.18 223.0
38.225 213.0
38.27 239.0
38.315 213.0
38.36 222.0
38.405 227.0
38.45 215.0
38.495 236.0
38.54 192.0
38.585 236.0
38.63 200.0
38.675 218.0
38.72 222.0
38.765 250.0
38.81 226.0
38.855 220.0
38.9 198.0
38.945 212.0
38.99 203.0
39.035 212.0
39.08 217.0
39.125 207.0
39.17 201.0
39.215 211.0
39.26 215.0
39.305 229.0
39.35 209.0
39.395 235.0
39.44 207.0
39.485 202.0
39.53 231.0
39.575 228.0
39.62 208.0
39.665 231.0
39.71 229.0
39.755 214.0
39.8 228.0
39.845 211.0
39.89 244.0
39.935 216.0
39.98 233.0
40.025 243.0
40.07 221.0
40.115 263.0
40.16 238.0
40.205 234.0
40.25 246.0
40.295 242.0
40.34 222.0
40.385 241.0
40.43 230.0
40.475 246.0
40.52 248.0
40.565 235.0
40.61 228.0
40.655 231.0
40.7 236.0
40.745 243.0
40.79 232.0
40.835 238.0
40.88 228.0
40.925 248.0
40.97 247.0
41.015 203.0
41.06 258.0
41.105 246.0
41.15 237.0
41.195 215.0
41.24 241.0
41.285 229.0
41.33 241.0
41.375 228.0
41.42 214.0
41.465 240.0
41.51 206.0
41.555 224.0
41.6 243.0
41.645 208.0
41.69 205.0
41.735 206.0
41.78 213.0
41.825 208.0
41.87 216.0
41.915 196.0
41.96 204.0
42.005 222.0
42.05 199.0
42.095 187.0
42.14 220.0
42.185 209.0
42.23 209.0
42.275 205.0
42.32 213.0
42.365 213.0
42.41 212.0
42.455 207.0
42.5 213.0
42.545 214.0
42.59 211.0
42.635 194.0
42.68 211.0
42.725 217.0
42.77 209.0
42.815 188.0
42.86 218.0
42.905 229.0
42.95 202.0
42.995 225.0
43.04 213.0
43.085 205.0
43.13 201.0
43.175 210.0
43.22 208.0
43.265 220.0
43.31 214.0
43.355 191.0
43.4 213.0
43.445 204.0
43.49 169.0
43.535 179.0
43.58 227.0
43.625 208.0
43.67 194.0
43.715 201.0
43.76 191.0
43.805 200.0
43.85 181.0
43.895 202.0
43.94 201.0
43.985 212.0
44.03 209.0
44.075 231.0
44.12 180.0
44.165 211.0
44.21 203.0
44.255 184.0
44.3 177.0
44.345 185.0
44.39 198.0
44.435 214.0
44.48 205.0
44.525 182.0
44.57 168.0
44.615 198.0
44.66 216.0
44.705 182.0
44.75 189.0
44.795 189.0
44.84 195.0
44.885 170.0
44.93 191.0
44.975 202.0
45.02 205.0
45.065 176.0
45.11 195.0
45.155 203.0
45.2 187.0
45.245 184.0
45.29 192.0
45.335 201.0
45.38 187.0
45.425 209.0
45.47 199.0
45.515 181.0
45.56 208.0
45.605 203.0
45.65 218.0
45.695 205.0
45.74 221.0
45.785 219.0
45.83 216.0
45.875 211.0
45.92 222.0
45.965 195.0
46.01 210.0
46.055 216.0
46.1 218.0
46.145 201.0
46.19 193.0
46.235 188.0
46.28 186.0
46.325 209.0
46.37 205.0
46.415 187.0
46.46 195.0
46.505 196.0
46.55 188.0
46.595 194.0
46.64 185.0
46.685 182.0
46.73 180.0
46.775 165.0
46.82 175.0
46.865 184.0
46.91 198.0
46.955 170.0
47.0 190.0
47.045 188.0
47.09 188.0
47.135 192.0
47.18 180.0
47.225 175.0
47.27 178.0
47.315 168.0
47.36 171.0
47.405 182.0
47.45 195.0
47.495 205.0
47.54 184.0
47.585 190.0
47.63 169.0
47.675 206.0
47.72 174.0
47.765 191.0
47.81 188.0
47.855 208.0
47.9 175.0
47.945 188.0
47.99 165.0
48.035 172.0
48.08 190.0
48.125 186.0
48.17 173.0
48.215 184.0
48.26 176.0
48.305 177.0
48.35 174.0
48.395 174.0
48.44 162.0
48.485 181.0
48.53 160.0
48.575 167.0
48.62 176.0
48.665 184.0
48.71 200.0
48.755 183.0
48.8 184.0
48.845 168.0
48.89 177.0
48.935 178.0
48.98 172.0
49.025 177.0
49.07 176.0
49.115 176.0
49.16 179.0
49.205 169.0
49.25 175.0
49.295 142.0
49.34 192.0
49.385 176.0
49.43 159.0
49.475 176.0
49.52 161.0
49.565 160.0
49.61 171.0
49.655 166.0
49.7 164.0
49.745 163.0
49.79 180.0
49.835 156.0
49.88 163.0
49.925 170.0
49.97 180.0
50.015 167.0
50.06 155.0
50.105 171.0
50.15 178.0
50.195 166.0
50.24 167.0
50.285 166.0
50.33 150.0
50.375 178.0
50.42 171.0
50.465 161.0
50.51 143.0
50.555 162.0
50.6 169.0
50.645 168.0
50.69 152.0
50.735 178.0
50.78 159.0
50.825 173.0
50.87 154.0
50.915 160.0
50.96 167.0
51.005 177.0
51.05 177.0
51.095 165.0
51.14 158.0
51.185 153.0
51.23 168.0
51.275 150.0
51.32 153.0
51.365 177.0
51.41 176.0
51.455 178.0
51.5 173.0
51.545 172.0
51.59 164.0
51.635 172.0
51.68 151.0
51.725 157.0
51.77 175.0
51.815 163.0
51.86 170.0
51.905 166.0
51.95 145.0
51.995 164.0
52.04 187.0
52.085 203.0
52.13 157.0
52.175 190.0
52.22 173.0
52.265 163.0
52.31 166.0
52.355 172.0
52.4 163.0
52.445 169.0
52.49 182.0
52.535 188.0
52.58 192.0
52.625 179.0
52.67 157.0
52.715 186.0
52.76 171.0
52.805 178.0
52.85 152.0
52.895 161.0
52.94 192.0
52.985 180.0
53.03 154.0
53.075 157.0
53.12 173.0
53.165 153.0
53.21 174.0
53.255 190.0
53.3 171.0
53.345 187.0
53.39 169.0
53.435 159.0
53.48 187.0
53.525 169.0
53.57 170.0
53.615 165.0
53.66 176.0
53.705 159.0
53.75 180.0
53.795 165.0
53.84 170.0
53.885 165.0
53.93 173.0
53.975 154.0
54.02 151.0
54.065 199.0
54.11 178.0
54.155 162.0
54.2 172.0
54.245 158.0
54.29 169.0
54.335 168.0
54.38 167.0
54.425 193.0
54.47 189.0
54.515 172.0
54.56 172.0
54.605 174.0
54.65 156.0
54.695 162.0
54.74 179.0
54.785 158.0
54.83 169.0
54.875 158.0
54.92 162.0
54.965 166.0
55.01 163.0
55.055 152.0
55.1 158.0
55.145 141.0
55.19 155.0
55.235 186.0
55.28 164.0
55.325 161.0
55.37 187.0
55.415 178.0
55.46 175.0
55.505 150.0
55.55 134.0
55.595 166.0
55.64 167.0
55.685 138.0
55.73 160.0
55.775 167.0
55.82 163.0
55.865 163.0
55.91 161.0
55.955 148.0
56.0 155.0
56.045 164.0
56.09 145.0
56.135 154.0
56.18 151.0
56.225 158.0
56.27 173.0
56.315 167.0
56.36 156.0
56.405 152.0
56.45 160.0
56.495 174.0
56.54 168.0
56.585 178.0
56.63 153.0
56.675 148.0
56.72 158.0
56.765 153.0
56.81 178.0
56.855 164.0
56.9 171.0
56.945 139.0
56.99 145.0
57.035 159.0
57.08 150.0
57.125 140.0
57.17 133.0
57.215 150.0
57.26 163.0
57.305 169.0
57.35 167.0
57.395 161.0
57.44 149.0
57.485 145.0
57.53 154.0
57.575 152.0
57.62 149.0
57.665 162.0
57.71 157.0
57.755 148.0
57.8 143.0
57.845 159.0
57.89 154.0
57.935 134.0
57.98 148.0
58.025 159.0
58.07 158.0
58.115 143.0
58.16 150.0
58.205 138.0
58.25 146.0
58.295 159.0
58.34 161.0
58.385 145.0
58.43 153.0
58.475 155.0
58.52 163.0
58.565 168.0
58.61 143.0
58.655 143.0
58.7 158.0
58.745 143.0
58.79 157.0
58.835 157.0
58.88 163.0
58.925 131.0
58.97 151.0
59.015 134.0
59.06 148.0
59.105 131.0
59.15 151.0
59.195 153.0
59.24 133.0
59.285 161.0
59.33 157.0
59.375 158.0
59.42 142.0
59.465 151.0
59.51 159.0
59.555 150.0
59.6 152.0
59.645 150.0
59.69 143.0
59.735 154.0
59.78 150.0
59.825 154.0
59.87 155.0
59.915 149.0
59.96 155.0
60.005 143.0
60.05 143.0
60.095 151.0
60.14 148.0
60.185 145.0
60.23 160.0
60.275 163.0
60.32 139.0
60.365 153.0
60.41 139.0
60.455 143.0
60.5 148.0
60.545 140.0
60.59 144.0
60.635 142.0
60.68 135.0
60.725 153.0
60.77 132.0
60.815 144.0
60.86 139.0
60.905 139.0
60.95 139.0
60.995 143.0
61.04 145.0
61.085 148.0
61.13 153.0
61.175 127.0
61.22 160.0
61.265 139.0
61.31 140.0
61.355 160.0
61.4 144.0
61.445 136.0
61.49 133.0
61.535 136.0
61.58 139.0
61.625 139.0
61.67 151.0
61.715 139.0
61.76 150.0
61.805 153.0
61.85 141.0
61.895 143.0
61.94 142.0
61.985 134.0