File: ISoD/xrd_data/HSC074_nPC.xy
2.00000 4.000
2.04500 9.000
2.09000 7.000
2.13500 9.000
2.18000 8.000
2.22500 4.000
2.27000 7.000
2.31500 9.000
2.36000 8.000
2.40500 3.000
2.45000 3.000
2.49500 4.000
2.54000 6.000
2.58500 6.000
2.63000 11.000
2.67500 5.000
2.72000 2.000
2.76500 3.000
2.81000 7.000
2.85500 6.000
2.90000 4.000
2.94500 4.000
2.99000 7.000
3.03500 7.000
3.08000 5.000
3.12500 12.000
3.17000 27.000
3.21500 214.000
3.26000 948.000
3.30500 1709.000
3.35000 2006.000
3.39500 2042.000
3.44000 2029.000
3.48500 1970.000
3.53000 1965.000
3.57500 1881.000
3.62000 1874.000
3.66500 1762.000
3.71000 1842.000
3.75500 1752.000
3.80000 1686.000
3.84500 1663.000
3.89000 1646.000
3.93500 1658.000
3.98000 1598.000
4.02500 1590.000
4.07000 1575.000
4.11500 1489.000
4.16000 1509.000
4.20500 1471.000
4.25000 1444.000
4.29500 1401.000
4.34000 1414.000
4.38500 1348.000
4.43000 1418.000
4.47500 1327.000
4.52000 1280.000
4.56500 1246.000
4.61000 1332.000
4.65500 1235.000
4.70000 1171.000
4.74500 1203.000
4.79000 1224.000
4.83500 1149.000
4.88000 1136.000
4.92500 1086.000
4.97000 1133.000
5.01500 1109.000
5.06000 1168.000
5.10500 1064.000
5.15000 1074.000
5.19500 1097.000
5.24000 1077.000
5.28500 1065.000
5.33000 1024.000
5.37500 1009.000
5.42000 997.000
5.46500 988.000
5.51000 1044.000
5.55500 981.000
5.60000 942.000
5.64500 918.000
5.69000 962.000
5.73500 934.000
5.78000 912.000
5.82500 886.000
5.87000 905.000
5.91500 955.000
5.96000 933.000
6.00500 864.000
6.05000 855.000
6.09500 912.000
6.14000 880.000
6.18500 943.000
6.23000 934.000
6.27500 1011.000
6.32000 974.000
6.36500 829.000
6.41000 822.000
6.45500 819.000
6.50000 811.000
6.54500 806.000
6.59000 818.000
6.63500 804.000
6.68000 787.000
6.72500 794.000
6.77000 775.000
6.81500 808.000
6.86000 754.000
6.90500 796.000
6.95000 750.000
6.99500 762.000
7.04000 756.000
7.08500 777.000
7.13000 775.000
7.17500 740.000
7.22000 786.000
7.26500 746.000
7.31000 747.000
7.35500 764.000
7.40000 704.000
7.44500 680.000
7.49000 739.000
7.53500 724.000
7.58000 708.000
7.62500 712.000
7.67000 717.000
7.71500 695.000
7.76000 690.000
7.80500 711.000
7.85000 656.000
7.89500 687.000
7.94000 681.000
7.98500 689.000
8.03000 738.000
8.07500 696.000
8.12000 665.000
8.16500 678.000
8.21000 678.000
8.25500 727.000
8.30000 678.000
8.34500 710.000
8.39000 685.000
8.43500 725.000
8.48000 657.000
8.52500 688.000
8.57000 645.000
8.61500 650.000
8.66000 683.000
8.70500 671.000
8.75000 663.000
8.79500 638.000
8.84000 693.000
8.88500 673.000
8.93000 695.000
8.97500 684.000
9.02000 669.000
9.06500 654.000
9.11000 635.000
9.15500 602.000
9.20000 683.000
9.24500 647.000
9.29000 598.000
9.33500 639.000
9.38000 637.000
9.42500 658.000
9.47000 673.000
9.51500 651.000
9.56000 648.000
9.60500 615.000
9.65000 631.000
9.69500 674.000
9.74000 674.000
9.78500 678.000
9.83000 682.000
9.87500 698.000
9.92000 679.000
9.96500 678.000
10.01000 662.000
10.05500 649.000
10.10000 718.000
10.14500 670.000
10.19000 689.000
10.23500 648.000
10.28000 651.000
10.32500 671.000
10.37000 698.000
10.41500 726.000
10.46000 719.000
10.50500 662.000
10.55000 679.000
10.59500 715.000
10.64000 711.000
10.68500 702.000
10.73000 706.000
10.77500 725.000
10.82000 723.000
10.86500 697.000
10.91000 755.000
10.95500 776.000
11.00000 828.000
11.04500 804.000
11.09000 738.000
11.13500 699.000
11.18000 730.000
11.22500 739.000
11.27000 684.000
11.31500 674.000
11.36000 693.000
11.40500 720.000
11.45000 697.000
11.49500 725.000
11.54000 743.000
11.58500 806.000
11.63000 796.000
11.67500 920.000
11.72000 990.000
11.76500 1073.000
11.81000 1264.000
11.85500 1577.000
11.90000 1777.000
11.94500 2209.000
11.99000 2655.000
12.03500 3007.000
12.08000 2854.000
12.12500 2339.000
12.17000 1695.000
12.21500 1298.000
12.26000 1029.000
12.30500 948.000
12.35000 870.000
12.39500 809.000
12.44000 788.000
12.48500 750.000
12.53000 709.000
12.57500 681.000
12.62000 720.000
12.66500 714.000
12.71000 694.000
12.75500 665.000
12.80000 617.000
12.84500 619.000
12.89000 619.000
12.93500 680.000
12.98000 618.000
13.02500 608.000
13.07000 661.000
13.11500 646.000
13.16000 616.000
13.20500 589.000
13.25000 588.000
13.29500 603.000
13.34000 566.000
13.38500 606.000
13.43000 620.000
13.47500 609.000
13.52000 606.000
13.56500 585.000
13.61000 600.000
13.65500 583.000
13.70000 590.000
13.74500 630.000
13.79000 590.000
13.83500 577.000
13.88000 571.000
13.92500 604.000
13.97000 593.000
14.01500 595.000
14.06000 608.000
14.10500 579.000
14.15000 626.000
14.19500 602.000
14.24000 604.000
14.28500 575.000
14.33000 603.000
14.37500 572.000
14.42000 605.000
14.46500 625.000
14.51000 562.000
14.55500 612.000
14.60000 593.000
14.64500 577.000
14.69000 620.000
14.73500 621.000
14.78000 560.000
14.82500 597.000
14.87000 563.000
14.91500 575.000
14.96000 595.000
15.00500 595.000
15.05000 593.000
15.09500 613.000
15.14000 536.000
15.18500 570.000
15.23000 609.000
15.27500 603.000
15.32000 575.000
15.36500 573.000
15.41000 579.000
15.45500 586.000
15.50000 576.000
15.54500 579.000
15.59000 595.000
15.63500 552.000
15.68000 630.000
15.72500 595.000
15.77000 601.000
15.81500 591.000
15.86000 579.000
15.90500 626.000
15.95000 610.000
15.99500 635.000
16.04000 582.000
16.08500 583.000
16.13000 602.000
16.17500 593.000
16.22000 603.000
16.26500 577.000
16.31000 592.000
16.35500 589.000
16.40000 598.000
16.44500 586.000
16.49000 622.000
16.53500 594.000
16.58000 602.000
16.62500 608.000
16.67000 607.000
16.71500 630.000
16.76000 625.000
16.80500 587.000
16.85000 626.000
16.89500 608.000
16.94000 634.000
16.98500 607.000
17.03000 617.000
17.07500 634.000
17.12000 642.000
17.16500 666.000
17.21000 646.000
17.25500 681.000
17.30000 630.000
17.34500 652.000
17.39000 668.000
17.43500 694.000
17.48000 715.000
17.52500 704.000
17.57000 748.000
17.61500 684.000
17.66000 755.000
17.70500 721.000
17.75000 702.000
17.79500 731.000
17.84000 766.000
17.88500 768.000
17.93000 778.000
17.97500 796.000
18.02000 803.000
18.06500 795.000
18.11000 695.000
18.15500 823.000
18.20000 723.000
18.24500 699.000
18.29000 761.000
18.33500 752.000
18.38000 647.000
18.42500 678.000
18.47000 704.000
18.51500 708.000
18.56000 634.000
18.60500 671.000
18.65000 666.000
18.69500 691.000
18.74000 656.000
18.78500 660.000
18.83000 681.000
18.87500 663.000
18.92000 683.000
18.96500 654.000
19.01000 661.000
19.05500 627.000
19.10000 642.000
19.14500 598.000
19.19000 631.000
19.23500 649.000
19.28000 625.000
19.32500 645.000
19.37000 581.000
19.41500 649.000
19.46000 588.000
19.50500 667.000
19.55000 622.000
19.59500 649.000
19.64000 624.000
19.68500 606.000
19.73000 636.000
19.77500 629.000
19.82000 649.000
19.86500 603.000
19.91000 593.000
19.95500 622.000
20.00000 606.000
20.04500 640.000
20.09000 679.000
20.13500 624.000
20.18000 715.000
20.22500 627.000
20.27000 620.000
20.31500 654.000
20.36000 654.000
20.40500 622.000
20.45000 673.000
20.49500 715.000
20.54000 692.000
20.58500 757.000
20.63000 780.000
20.67500 771.000
20.72000 853.000
20.76500 883.000
20.81000 1056.000
20.85500 1195.000
20.90000 1331.000
20.94500 1617.000
20.99000 1747.000
21.03500 1515.000
21.08000 1148.000
21.12500 904.000
21.17000 815.000
21.21500 750.000
21.26000 716.000
21.30500 684.000
21.35000 699.000
21.39500 635.000
21.44000 668.000
21.48500 679.000
21.53000 655.000
21.57500 672.000
21.62000 635.000
21.66500 673.000
21.71000 685.000
21.75500 642.000
21.80000 646.000
21.84500 632.000
21.89000 699.000
21.93500 624.000
21.98000 645.000
22.02500 665.000
22.07000 630.000
22.11500 646.000
22.16000 653.000
22.20500 631.000
22.25000 645.000
22.29500 654.000
22.34000 651.000
22.38500 633.000
22.43000 644.000
22.47500 685.000
22.52000 637.000
22.56500 645.000
22.61000 654.000
22.65500 677.000
22.70000 669.000
22.74500 634.000
22.79000 648.000
22.83500 666.000
22.88000 631.000
22.92500 624.000
22.97000 638.000
23.01500 676.000
23.06000 655.000
23.10500 667.000
23.15000 692.000
23.19500 695.000
23.24000 671.000
23.28500 687.000
23.33000 619.000
23.37500 697.000
23.42000 655.000
23.46500 673.000
23.51000 682.000
23.55500 678.000
23.60000 680.000
23.64500 658.000
23.69000 690.000
23.73500 714.000
23.78000 697.000
23.82500 691.000
23.87000 710.000
23.91500 739.000
23.96000 726.000
24.00500 732.000
24.05000 775.000
24.09500 764.000
24.14000 830.000
24.18500 992.000
24.23000 1072.000
24.27500 1233.000
24.32000 1171.000
24.36500 1092.000
24.41000 968.000
24.45500 928.000
24.50000 929.000
24.54500 933.000
24.59000 1017.000
24.63500 1021.000
24.68000 1021.000
24.72500 1089.000
24.77000 1089.000
24.81500 1126.000
24.86000 1227.000
24.90500 1127.000
24.95000 1045.000
24.99500 1096.000
25.04000 1024.000
25.08500 970.000
25.13000 980.000
25.17500 966.000
25.22000 902.000
25.26500 875.000
25.31000 898.000
25.35500 903.000
25.40000 868.000
25.44500 842.000
25.49000 911.000
25.53500 879.000
25.58000 875.000
25.62500 855.000
25.67000 832.000
25.71500 830.000
25.76000 818.000
25.80500 802.000
25.85000 844.000
25.89500 853.000
25.94000 881.000
25.98500 862.000
26.03000 854.000
26.07500 879.000
26.12000 875.000
26.16500 965.000
26.21000 1053.000
26.25500 1149.000
26.30000 1471.000
26.34500 1839.000
26.39000 2375.000
26.43500 2753.000
26.48000 2559.000
26.52500 2311.000
26.57000 2212.000
26.61500 2193.000
26.66000 2124.000
26.70500 2134.000
26.75000 2146.000
26.79500 2194.000
26.84000 2196.000
26.88500 2136.000
26.93000 2096.000
26.97500 2060.000
27.02000 1926.000
27.06500 1915.000
27.11000 1970.000
27.15500 1891.000
27.20000 1906.000
27.24500 1898.000
27.29000 1917.000
27.33500 1997.000
27.38000 1917.000
27.42500 1978.000
27.47000 1904.000
27.51500 1969.000
27.56000 1938.000
27.60500 1902.000
27.65000 1889.000
27.69500 1842.000
27.74000 1791.000
27.78500 1736.000
27.83000 1605.000
27.87500 1608.000
27.92000 1593.000
27.96500 1477.000
28.01000 1465.000
28.05500 1583.000
28.10000 1529.000
28.14500 1436.000
28.19000 1245.000
28.23500 1138.000
28.28000 1070.000
28.32500 1016.000
28.37000 1030.000
28.41500 946.000
28.46000 1012.000
28.50500 942.000
28.55000 926.000
28.59500 915.000
28.64000 911.000
28.68500 849.000
28.73000 891.000
28.77500 1003.000
28.82000 1012.000
28.86500 1104.000
28.91000 1207.000
28.95500 1372.000
29.00000 1534.000
29.04500 1781.000
29.09000 2012.000
29.13500 2141.000
29.18000 2114.000
29.22500 2018.000
29.27000 1743.000
29.31500 1598.000
29.36000 1499.000
29.40500 1340.000
29.45000 1311.000
29.49500 1159.000
29.54000 1120.000
29.58500 1106.000
29.63000 1029.000
29.67500 981.000
29.72000 978.000
29.76500 918.000
29.81000 917.000
29.85500 869.000
29.90000 932.000
29.94500 804.000
29.99000 763.000
30.03500 760.000
30.08000 742.000
30.12500 741.000
30.17000 732.000
30.21500 709.000
30.26000 697.000
30.30500 726.000
30.35000 631.000
30.39500 661.000
30.44000 662.000
30.48500 671.000
30.53000 634.000
30.57500 662.000
30.62000 630.000
30.66500 605.000
30.71000 596.000
30.75500 635.000
30.80000 645.000
30.84500 612.000
30.89000 610.000
30.93500 616.000
30.98000 629.000
31.02500 580.000
31.07000 576.000
31.11500 586.000
31.16000 646.000
31.20500 551.000
31.25000 566.000
31.29500 562.000
31.34000 601.000
31.38500 603.000
31.43000 604.000
31.47500 593.000
31.52000 582.000
31.56500 589.000
31.61000 580.000
31.65500 609.000
31.70000 556.000
31.74500 551.000
31.79000 635.000
31.83500 631.000
31.88000 638.000
31.92500 622.000
31.97000 727.000
32.01500 721.000
32.06000 751.000
32.10500 775.000
32.15000 869.000
32.19500 944.000
32.24000 1076.000
32.28500 1254.000
32.33000 1318.000
32.37500 1184.000
32.42000 932.000
32.46500 809.000
32.51000 712.000
32.55500 628.000
32.60000 629.000
32.64500 588.000
32.69000 613.000
32.73500 581.000
32.78000 569.000
32.82500 629.000
32.87000 533.000
32.91500 547.000
32.96000 496.000
33.00500 482.000
33.05000 529.000
33.09500 516.000
33.14000 491.000
33.18500 505.000
33.23000 510.000
33.27500 539.000
33.32000 513.000
33.36500 499.000
33.41000 518.000
33.45500 505.000
33.50000 539.000
33.54500 534.000
33.59000 564.000
33.63500 542.000
33.68000 547.000
33.72500 521.000
33.77000 552.000
33.81500 551.000
33.86000 548.000
33.90500 551.000
33.95000 550.000
33.99500 548.000
34.04000 590.000
34.08500 582.000
34.13000 555.000
34.17500 532.000
34.22000 521.000
34.26500 501.000
34.31000 531.000
34.35500 535.000
34.40000 520.000
34.44500 503.000
34.49000 562.000
34.53500 551.000
34.58000 522.000
34.62500 522.000
34.67000 481.000
34.71500 541.000
34.76000 516.000
34.80500 543.000
34.85000 521.000
34.89500 552.000
34.94000 552.000
34.98500 533.000
35.03000 565.000
35.07500 580.000
35.12000 588.000
35.16500 546.000
35.21000 573.000
35.25500 504.000
35.30000 492.000
35.34500 503.000
35.39000 521.000
35.43500 496.000
35.48000 503.000
35.52500 487.000
35.57000 478.000
35.61500 478.000
35.66000 521.000
35.70500 483.000
35.75000 458.000
35.79500 464.000
35.84000 484.000
35.88500 476.000
35.93000 522.000
35.97500 505.000
36.02000 511.000
36.06500 520.000
36.11000 532.000
36.15500 537.000
36.20000 545.000
36.24500 506.000
36.29000 498.000
36.33500 525.000
36.38000 520.000
36.42500 480.000
36.47000 473.000
36.51500 526.000
36.56000 516.000
36.60500 467.000
36.65000 489.000
36.69500 499.000
36.74000 460.000
36.78500 468.000
36.83000 458.000
36.87500 451.000
36.92000 465.000
36.96500 444.000
37.01000 449.000
37.05500 473.000
37.10000 458.000
37.14500 445.000
37.19000 442.000
37.23500 421.000
37.28000 460.000
37.32500 458.000
37.37000 426.000
37.41500 412.000
37.46000 417.000
37.50500 447.000
37.55000 446.000
37.59500 458.000
37.64000 460.000
37.68500 446.000
37.73000 468.000
37.77500 423.000
37.82000 434.000
37.86500 415.000
37.91000 466.000
37.95500 447.000
38.00000 456.000
38.04500 443.000
38.09000 467.000
38.13500 418.000
38.18000 435.000
38.22500 456.000
38.27000 430.000
38.31500 396.000
38.36000 425.000
38.40500 467.000
38.45000 421.000
38.49500 432.000
38.54000 403.000
38.58500 458.000
38.63000 453.000
38.67500 461.000
38.72000 444.000
38.76500 442.000
38.81000 416.000
38.85500 477.000
38.90000 455.000
38.94500 452.000
38.99000 455.000
39.03500 436.000
39.08000 451.000
39.12500 440.000
39.17000 429.000
39.21500 468.000
39.26000 454.000
39.30500 482.000
39.35000 475.000
39.39500 497.000
39.44000 468.000
39.48500 455.000
39.53000 494.000
39.57500 480.000
39.62000 467.000
39.66500 494.000
39.71000 450.000
39.75500 457.000
39.80000 490.000
39.84500 486.000
39.89000 470.000
39.93500 469.000
39.98000 472.000
40.02500 464.000
40.07000 467.000
40.11500 481.000
40.16000 454.000
40.20500 456.000
40.25000 469.000
40.29500 425.000
40.34000 457.000
40.38500 463.000
40.43000 425.000
40.47500 427.000
40.52000 444.000
40.56500 425.000
40.61000 436.000
40.65500 457.000
40.70000 447.000
40.74500 456.000
40.79000 436.000
40.83500 409.000
40.88000 424.000
40.92500 430.000
40.97000 414.000
41.01500 421.000
41.06000 434.000
41.10500 422.000
41.15000 430.000
41.19500 454.000
41.24000 427.000
41.28500 439.000
41.33000 400.000
41.37500 425.000
41.42000 439.000
41.46500 436.000
41.51000 424.000
41.55500 436.000
41.60000 451.000
41.64500 433.000
41.69000 416.000
41.73500 415.000
41.78000 425.000
41.82500 424.000
41.87000 444.000
41.91500 428.000
41.96000 425.000
42.00500 460.000
42.05000 459.000
42.09500 470.000
42.14000 451.000
42.18500 462.000
42.23000 498.000
42.27500 479.000
42.32000 482.000
42.36500 499.000
42.41000 475.000
42.45500 494.000
42.50000 505.000
42.54500 510.000
42.59000 543.000
42.63500 517.000
42.68000 542.000
42.72500 541.000
42.77000 500.000
42.81500 538.000
42.86000 483.000
42.90500 489.000
42.95000 471.000
42.99500 458.000
43.04000 449.000
43.08500 460.000
43.13000 416.000
43.17500 424.000
43.22000 456.000
43.26500 433.000
43.31000 437.000
43.35500 460.000
43.40000 439.000
43.44500 408.000
43.49000 432.000
43.53500 427.000
43.58000 438.000
43.62500 433.000
43.67000 448.000
43.71500 460.000
43.76000 437.000
43.80500 430.000
43.85000 467.000
43.89500 470.000
43.94000 485.000
43.98500 457.000
44.03000 486.000
44.07500 487.000
44.12000 497.000
44.16500 538.000
44.21000 546.000
44.25500 552.000
44.30000 565.000
44.34500 571.000
44.39000 584.000
44.43500 572.000
44.48000 621.000
44.52500 663.000
44.57000 715.000
44.61500 692.000
44.66000 688.000
44.70500 639.000
44.75000 748.000
44.79500 698.000
44.84000 712.000
44.88500 654.000
44.93000 669.000
44.97500 692.000
45.02000 578.000
45.06500 624.000
45.11000 563.000
45.15500 535.000
45.20000 526.000
45.24500 511.000
45.29000 515.000
45.33500 533.000
45.38000 472.000
45.42500 500.000
45.47000 500.000
45.51500 455.000
45.56000 443.000
45.60500 479.000
45.65000 450.000
45.69500 513.000
45.74000 458.000
45.78500 450.000
45.83000 464.000
45.87500 445.000
45.92000 460.000
45.96500 412.000
46.01000 472.000
46.05500 424.000
46.10000 415.000
46.14500 427.000
46.19000 409.000
46.23500 412.000
46.28000 405.000
46.32500 425.000
46.37000 435.000
46.41500 409.000
46.46000 400.000
46.50500 469.000
46.55000 460.000
46.59500 472.000
46.64000 445.000
46.68500 441.000
46.73000 416.000
46.77500 429.000
46.82000 409.000
46.86500 359.000
46.91000 433.000
46.95500 383.000
47.00000 389.000
47.04500 364.000
47.09000 380.000
47.13500 401.000
47.18000 365.000
47.22500 337.000
47.27000 361.000
47.31500 377.000
47.36000 346.000
47.40500 389.000
47.45000 362.000
47.49500 390.000
47.54000 344.000
47.58500 381.000
47.63000 361.000
47.67500 378.000
47.72000 341.000
47.76500 339.000
47.81000 343.000
47.85500 316.000
47.90000 329.000
47.94500 348.000
47.99000 338.000
48.03500 327.000
48.08000 334.000
48.12500 322.000
48.17000 348.000
48.21500 305.000
48.26000 318.000
48.30500 336.000
48.35000 303.000
48.39500 316.000
48.44000 347.000
48.48500 326.000
48.53000 295.000
48.57500 316.000
48.62000 313.000
48.66500 302.000
48.71000 300.000
48.75500 302.000
48.80000 322.000
48.84500 332.000
48.89000 331.000
48.93500 353.000
48.98000 319.000
49.02500 328.000
49.07000 329.000
49.11500 328.000
49.16000 317.000
49.20500 327.000
49.25000 340.000
49.29500 323.000
49.34000 336.000
49.38500 333.000
49.43000 297.000
49.47500 320.000
49.52000 318.000
49.56500 306.000
49.61000 328.000
49.65500 342.000
49.70000 352.000
49.74500 342.000
49.79000 298.000
49.83500 316.000
49.88000 339.000
49.92500 341.000
49.97000 353.000
50.01500 338.000
50.06000 315.000
50.10500 300.000
50.15000 297.000
50.19500 336.000
50.24000 327.000
50.28500 324.000
50.33000 354.000
50.37500 375.000
50.42000 357.000
50.46500 324.000
50.51000 382.000
50.55500 378.000
50.60000 395.000
50.64500 387.000
50.69000 369.000
50.73500 452.000
50.78000 413.000
50.82500 444.000
50.87000 437.000
50.91500 466.000
50.96000 468.000
51.00500 473.000
51.05000 441.000
51.09500 417.000
51.14000 396.000
51.18500 410.000
51.23000 396.000
51.27500 384.000
51.32000 362.000
51.36500 367.000
51.41000 349.000
51.45500 367.000
51.50000 359.000
51.54500 344.000
51.59000 332.000
51.63500 327.000
51.68000 314.000
51.72500 304.000
51.77000 304.000
51.81500 325.000
51.86000 291.000
51.90500 324.000
51.95000 319.000
51.99500 325.000
52.04000 289.000
52.08500 307.000
52.13000 290.000
52.17500 295.000
52.22000 292.000
52.26500 328.000
52.31000 320.000
52.35500 304.000
52.40000 314.000
52.44500 336.000
52.49000 335.000
52.53500 344.000
52.58000 321.000
52.62500 307.000
52.67000 306.000
52.71500 320.000
52.76000 293.000
52.80500 289.000
52.85000 311.000
52.89500 283.000
52.94000 297.000
52.98500 304.000
53.03000 308.000
53.07500 308.000
53.12000 288.000
53.16500 329.000
53.21000 324.000
53.25500 336.000
53.30000 301.000
53.34500 298.000
53.39000 297.000
53.43500 310.000
53.48000 321.000
53.52500 331.000
53.57000 297.000
53.61500 294.000
53.66000 307.000
53.70500 317.000
53.75000 329.000
53.79500 312.000
53.84000 332.000
53.88500 286.000
53.93000 316.000
53.97500 338.000
54.02000 335.000
54.06500 354.000
54.11000 330.000
54.15500 376.000
54.20000 370.000
54.24500 380.000
54.29000 402.000
54.33500 402.000
54.38000 476.000
54.42500 422.000
54.47000 467.000
54.51500 496.000
54.56000 469.000
54.60500 502.000
54.65000 456.000
54.69500 431.000
54.74000 386.000
54.78500 387.000
54.83000 370.000
54.87500 344.000
54.92000 339.000
54.96500 318.000
55.01000 346.000
55.05500 327.000
55.10000 351.000
55.14500 336.000
55.19000 337.000
55.23500 347.000
55.28000 347.000
55.32500 343.000
55.37000 334.000
55.41500 362.000
55.46000 330.000
55.50500 329.000
55.55000 346.000
55.59500 365.000
55.64000 346.000
55.68500 353.000
55.73000 352.000
55.77500 390.000
55.82000 358.000
55.86500 378.000
55.91000 383.000
55.95500 378.000
56.00000 383.000
56.04500 354.000
56.09000 337.000
56.13500 394.000
56.18000 349.000
56.22500 358.000
56.27000 360.000
56.31500 371.000
56.36000 376.000
56.40500 377.000
56.45000 348.000
56.49500 359.000
56.54000 351.000
56.58500 349.000
56.63000 374.000
56.67500 345.000
56.72000 345.000
56.76500 342.000
56.81000 351.000
56.85500 329.000
56.90000 338.000
56.94500 344.000
56.99000 308.000
57.03500 353.000
57.08000 342.000
57.12500 342.000
57.17000 334.000
57.21500 345.000
57.26000 322.000
57.30500 305.000
57.35000 329.000
57.39500 326.000
57.44000 323.000
57.48500 343.000
57.53000 309.000
57.57500 328.000
57.62000 316.000
57.66500 357.000
57.71000 315.000
57.75500 318.000
57.80000 295.000
57.84500 305.000
57.89000 314.000
57.93500 303.000
57.98000 297.000
58.02500 303.000
58.07000 310.000
58.11500 310.000
58.16000 299.000
58.20500 285.000
58.25000 299.000
58.29500 272.000
58.34000 288.000
58.38500 287.000
58.43000 295.000
58.47500 287.000
58.52000 281.000
58.56500 310.000
58.61000 294.000
58.65500 281.000
58.70000 298.000
58.74500 285.000
58.79000 277.000
58.83500 278.000
58.88000 286.000
58.92500 299.000
58.97000 296.000
59.01500 295.000
59.06000 294.000
59.10500 300.000
59.15000 299.000
59.19500 303.000
59.24000 277.000
59.28500 278.000
59.33000 271.000
59.37500 283.000
59.42000 287.000
59.46500 259.000
59.51000 273.000
59.55500 295.000
59.60000 295.000
59.64500 280.000
59.69000 272.000
59.73500 280.000
59.78000 267.000
59.82500 268.000
59.87000 280.000
59.91500 265.000
59.96000 293.000
60.00500 263.000
60.05000 267.000
60.09500 255.000
60.14000 273.000
60.18500 268.000
60.23000 261.000
60.27500 298.000
60.32000 270.000
60.36500 278.000
60.41000 260.000
60.45500 283.000
60.50000 288.000
60.54500 302.000
60.59000 277.000
60.63500 270.000
60.68000 257.000
60.72500 289.000
60.77000 277.000
60.81500 290.000
60.86000 263.000
60.90500 284.000
60.95000 261.000
60.99500 291.000
61.04000 282.000
61.08500 278.000
61.13000 278.000
61.17500 269.000
61.22000 267.000
61.26500 300.000
61.31000 257.000
61.35500 276.000
61.40000 266.000
61.44500 267.000
61.49000 262.000
61.53500 267.000
61.58000 258.000
61.62500 263.000
61.67000 278.000
61.71500 260.000
61.76000 293.000
61.80500 260.000
61.85000 258.000
61.89500 256.000
61.94000 283.000
61.98500 254.000