File: ISoD/xrd_data/HSC055.xy
2.00000 11.000
2.04500 19.000
2.09000 11.000
2.13500 15.000
2.18000 19.000
2.22500 18.000
2.27000 13.000
2.31500 9.000
2.36000 12.000
2.40500 15.000
2.45000 10.000
2.49500 11.000
2.54000 12.000
2.58500 9.000
2.63000 18.000
2.67500 11.000
2.72000 14.000
2.76500 11.000
2.81000 13.000
2.85500 15.000
2.90000 17.000
2.94500 14.000
2.99000 10.000
3.03500 10.000
3.08000 13.000
3.12500 10.000
3.17000 12.000
3.21500 8.000
3.26000 17.000
3.30500 23.000
3.35000 36.000
3.39500 77.000
3.44000 144.000
3.48500 265.000
3.53000 313.000
3.57500 312.000
3.62000 329.000
3.66500 340.000
3.71000 370.000
3.75500 354.000
3.80000 387.000
3.84500 365.000
3.89000 377.000
3.93500 397.000
3.98000 395.000
4.02500 432.000
4.07000 447.000
4.11500 408.000
4.16000 446.000
4.20500 409.000
4.25000 429.000
4.29500 437.000
4.34000 415.000
4.38500 447.000
4.43000 468.000
4.47500 469.000
4.52000 487.000
4.56500 480.000
4.61000 479.000
4.65500 507.000
4.70000 500.000
4.74500 474.000
4.79000 511.000
4.83500 499.000
4.88000 516.000
4.92500 497.000
4.97000 513.000
5.01500 549.000
5.06000 550.000
5.10500 539.000
5.15000 531.000
5.19500 573.000
5.24000 556.000
5.28500 559.000
5.33000 540.000
5.37500 606.000
5.42000 573.000
5.46500 577.000
5.51000 585.000
5.55500 595.000
5.60000 561.000
5.64500 598.000
5.69000 632.000
5.73500 645.000
5.78000 622.000
5.82500 652.000
5.87000 671.000
5.91500 615.000
5.96000 662.000
6.00500 652.000
6.05000 620.000
6.09500 653.000
6.14000 630.000
6.18500 662.000
6.23000 677.000
6.27500 637.000
6.32000 645.000
6.36500 642.000
6.41000 677.000
6.45500 673.000
6.50000 679.000
6.54500 648.000
6.59000 692.000
6.63500 664.000
6.68000 678.000
6.72500 721.000
6.77000 664.000
6.81500 687.000
6.86000 696.000
6.90500 727.000
6.95000 706.000
6.99500 690.000
7.04000 682.000
7.08500 696.000
7.13000 656.000
7.17500 714.000
7.22000 740.000
7.26500 726.000
7.31000 703.000
7.35500 726.000
7.40000 734.000
7.44500 730.000
7.49000 734.000
7.53500 720.000
7.58000 772.000
7.62500 733.000
7.67000 738.000
7.71500 718.000
7.76000 720.000
7.80500 779.000
7.85000 753.000
7.89500 766.000
7.94000 750.000
7.98500 783.000
8.03000 736.000
8.07500 749.000
8.12000 765.000
8.16500 788.000
8.21000 792.000
8.25500 744.000
8.30000 768.000
8.34500 705.000
8.39000 813.000
8.43500 782.000
8.48000 743.000
8.52500 789.000
8.57000 763.000
8.61500 764.000
8.66000 770.000
8.70500 781.000
8.75000 777.000
8.79500 783.000
8.84000 825.000
8.88500 767.000
8.93000 803.000
8.97500 765.000
9.02000 800.000
9.06500 815.000
9.11000 828.000
9.15500 799.000
9.20000 755.000
9.24500 766.000
9.29000 809.000
9.33500 766.000
9.38000 779.000
9.42500 805.000
9.47000 805.000
9.51500 824.000
9.56000 814.000
9.60500 777.000
9.65000 812.000
9.69500 819.000
9.74000 815.000
9.78500 807.000
9.83000 809.000
9.87500 792.000
9.92000 807.000
9.96500 805.000
10.01000 870.000
10.05500 796.000
10.10000 851.000
10.14500 813.000
10.19000 834.000
10.23500 847.000
10.28000 839.000
10.32500 792.000
10.37000 871.000
10.41500 808.000
10.46000 807.000
10.50500 824.000
10.55000 759.000
10.59500 816.000
10.64000 817.000
10.68500 795.000
10.73000 771.000
10.77500 839.000
10.82000 817.000
10.86500 787.000
10.91000 881.000
10.95500 838.000
11.00000 795.000
11.04500 827.000
11.09000 840.000
11.13500 806.000
11.18000 864.000
11.22500 868.000
11.27000 859.000
11.31500 862.000
11.36000 901.000
11.40500 885.000
11.45000 859.000
11.49500 866.000
11.54000 877.000
11.58500 827.000
11.63000 860.000
11.67500 889.000
11.72000 913.000
11.76500 897.000
11.81000 937.000
11.85500 993.000
11.90000 1127.000
11.94500 1298.000
11.99000 1823.000
12.03500 2589.000
12.08000 4327.000
12.12500 6513.000
12.17000 9189.000
12.21500 16458.000
12.26000 29594.000
12.30500 19005.000
12.35000 3782.000
12.39500 2326.000
12.44000 2423.000
12.48500 2907.000
12.53000 3125.000
12.57500 2471.000
12.62000 1680.000
12.66500 1219.000
12.71000 1073.000
12.75500 1010.000
12.80000 968.000
12.84500 912.000
12.89000 958.000
12.93500 928.000
12.98000 939.000
13.02500 981.000
13.07000 971.000
13.11500 990.000
13.16000 1034.000
13.20500 1137.000
13.25000 1270.000
13.29500 1745.000
13.34000 2430.000
13.38500 3716.000
13.43000 6414.000
13.47500 5085.000
13.52000 1701.000
13.56500 1457.000
13.61000 1721.000
13.65500 2241.000
13.70000 3127.000
13.74500 4090.000
13.79000 3900.000
13.83500 2452.000
13.88000 1472.000
13.92500 1051.000
13.97000 961.000
14.01500 900.000
14.06000 885.000
14.10500 877.000
14.15000 862.000
14.19500 840.000
14.24000 880.000
14.28500 845.000
14.33000 828.000
14.37500 840.000
14.42000 862.000
14.46500 860.000
14.51000 851.000
14.55500 889.000
14.60000 846.000
14.64500 844.000
14.69000 858.000
14.73500 883.000
14.78000 868.000
14.82500 906.000
14.87000 838.000
14.91500 838.000
14.96000 868.000
15.00500 895.000
15.05000 873.000
15.09500 845.000
15.14000 873.000
15.18500 820.000
15.23000 816.000
15.27500 854.000
15.32000 839.000
15.36500 820.000
15.41000 863.000
15.45500 840.000
15.50000 865.000
15.54500 832.000
15.59000 833.000
15.63500 850.000
15.68000 843.000
15.72500 879.000
15.77000 809.000
15.81500 829.000
15.86000 893.000
15.90500 862.000
15.95000 884.000
15.99500 838.000
16.04000 893.000
16.08500 886.000
16.13000 860.000
16.17500 925.000
16.22000 949.000
16.26500 1010.000
16.31000 1148.000
16.35500 1433.000
16.40000 2021.000
16.44500 2417.000
16.49000 2175.000
16.53500 1561.000
16.58000 1168.000
16.62500 1168.000
16.67000 1269.000
16.71500 1353.000
16.76000 1362.000
16.80500 1279.000
16.85000 1384.000
16.89500 1622.000
16.94000 2201.000
16.98500 1498.000
17.03000 985.000
17.07500 896.000
17.12000 919.000
17.16500 899.000
17.21000 900.000
17.25500 849.000
17.30000 854.000
17.34500 906.000
17.39000 912.000
17.43500 901.000
17.48000 902.000
17.52500 927.000
17.57000 972.000
17.61500 913.000
17.66000 875.000
17.70500 892.000
17.75000 904.000
17.79500 919.000
17.84000 955.000
17.88500 921.000
17.93000 1068.000
17.97500 1298.000
18.02000 1791.000
18.06500 2828.000
18.11000 2248.000
18.15500 1276.000
18.20000 1008.000
18.24500 1012.000
18.29000 1057.000
18.33500 1071.000
18.38000 1107.000
18.42500 1159.000
18.47000 1123.000
18.51500 1065.000
18.56000 931.000
18.60500 928.000
18.65000 952.000
18.69500 958.000
18.74000 913.000
18.78500 951.000
18.83000 905.000
18.87500 931.000
18.92000 878.000
18.96500 925.000
19.01000 924.000
19.05500 965.000
19.10000 1062.000
19.14500 1088.000
19.19000 1225.000
19.23500 1232.000
19.28000 1318.000
19.32500 1621.000
19.37000 2028.000
19.41500 3064.000
19.46000 4309.000
19.50500 2806.000
19.55000 2162.000
19.59500 3006.000
19.64000 4760.000
19.68500 2954.000
19.73000 1655.000
19.77500 1304.000
19.82000 1075.000
19.86500 965.000
19.91000 931.000
19.95500 935.000
20.00000 932.000
20.04500 931.000
20.09000 913.000
20.13500 904.000
20.18000 952.000
20.22500 899.000
20.27000 912.000
20.31500 957.000
20.36000 946.000
20.40500 962.000
20.45000 918.000
20.49500 1063.000
20.54000 1113.000
20.58500 1289.000
20.63000 1230.000
20.67500 1040.000
20.72000 954.000
20.76500 981.000
20.81000 881.000
20.85500 933.000
20.90000 912.000
20.94500 929.000
20.99000 904.000
21.03500 942.000
21.08000 922.000
21.12500 921.000
21.17000 916.000
21.21500 971.000
21.26000 949.000
21.30500 927.000
21.35000 951.000
21.39500 967.000
21.44000 1032.000
21.48500 1076.000
21.53000 1163.000
21.57500 1460.000
21.62000 2020.000
21.66500 2883.000
21.71000 3362.000
21.75500 2333.000
21.80000 2216.000
21.84500 2510.000
21.89000 2553.000
21.93500 2293.000
21.98000 1983.000
22.02500 1600.000
22.07000 1442.000
22.11500 1484.000
22.16000 1640.000
22.20500 2049.000
22.25000 1535.000
22.29500 1150.000
22.34000 1024.000
22.38500 1034.000
22.43000 949.000
22.47500 965.000
22.52000 974.000
22.56500 955.000
22.61000 968.000
22.65500 990.000
22.70000 950.000
22.74500 967.000
22.79000 993.000
22.83500 926.000
22.88000 911.000
22.92500 1009.000
22.97000 927.000
23.01500 1001.000
23.06000 951.000
23.10500 969.000
23.15000 983.000
23.19500 984.000
23.24000 1025.000
23.28500 1027.000
23.33000 971.000
23.37500 955.000
23.42000 973.000
23.46500 953.000
23.51000 1039.000
23.55500 1006.000
23.60000 1007.000
23.64500 1001.000
23.69000 1054.000
23.73500 1020.000
23.78000 1054.000
23.82500 1144.000
23.87000 1196.000
23.91500 1429.000
23.96000 1720.000
24.00500 1502.000
24.05000 1042.000
24.09500 1066.000
24.14000 998.000
24.18500 1055.000
24.23000 1150.000
24.27500 1257.000
24.32000 1640.000
24.36500 1491.000
24.41000 1178.000
24.45500 1092.000
24.50000 1100.000
24.54500 1223.000
24.59000 1469.000
24.63500 1837.000
24.68000 2462.000
24.72500 2211.000
24.77000 1725.000
24.81500 1661.000
24.86000 1598.000
24.90500 1733.000
24.95000 1997.000
24.99500 2502.000
25.04000 3458.000
25.08500 4489.000
25.13000 5206.000
25.17500 5379.000
25.22000 4536.000
25.26500 3480.000
25.31000 2621.000
25.35500 2210.000
25.40000 1910.000
25.44500 1868.000
25.49000 1943.000
25.53500 2148.000
25.58000 2345.000
25.62500 3314.000
25.67000 5178.000
25.71500 8931.000
25.76000 11252.000
25.80500 6694.000
25.85000 3606.000
25.89500 2420.000
25.94000 1930.000
25.98500 1780.000
26.03000 1708.000
26.07500 1869.000
26.12000 2197.000
26.16500 3253.000
26.21000 5543.000
26.25500 9581.000
26.30000 8124.000
26.34500 3850.000
26.39000 2489.000
26.43500 2047.000
26.48000 2072.000
26.52500 1772.000
26.57000 1391.000
26.61500 1284.000
26.66000 1251.000
26.70500 1266.000
26.75000 1319.000
26.79500 1429.000
26.84000 1597.000
26.88500 1832.000
26.93000 2323.000
26.97500 2800.000
27.02000 3474.000
27.06500 4429.000
27.11000 4387.000
27.15500 3213.000
27.20000 2610.000
27.24500 2115.000
27.29000 1853.000
27.33500 1630.000
27.38000 1533.000
27.42500 1642.000
27.47000 1723.000
27.51500 2037.000
27.56000 2403.000
27.60500 3148.000
27.65000 4724.000
27.69500 7629.000
27.74000 12783.000
27.78500 19051.000
27.83000 12154.000
27.87500 5525.000
27.92000 3191.000
27.96500 2098.000
28.01000 1706.000
28.05500 1414.000
28.10000 1304.000
28.14500 1176.000
28.19000 1142.000
28.23500 1162.000
28.28000 1134.000
28.32500 1216.000
28.37000 1501.000
28.41500 1476.000
28.46000 1256.000
28.50500 1160.000
28.55000 1086.000
28.59500 1056.000
28.64000 1044.000
28.68500 1059.000
28.73000 1031.000
28.77500 1008.000
28.82000 1040.000
28.86500 1067.000
28.91000 1044.000
28.95500 1033.000
29.00000 1153.000
29.04500 1186.000
29.09000 1014.000
29.13500 877.000
29.18000 890.000
29.22500 887.000
29.27000 885.000
29.31500 876.000
29.36000 873.000
29.40500 892.000
29.45000 921.000
29.49500 967.000
29.54000 892.000
29.58500 1030.000
29.63000 1099.000
29.67500 1050.000
29.72000 984.000
29.76500 916.000
29.81000 954.000
29.85500 1014.000
29.90000 1099.000
29.94500 1300.000
29.99000 1578.000
30.03500 2047.000
30.08000 3004.000
30.12500 4151.000
30.17000 3258.000
30.21500 1814.000
30.26000 1528.000
30.30500 1489.000
30.35000 1482.000
30.39500 1337.000
30.44000 1227.000
30.48500 1212.000
30.53000 1158.000
30.57500 1240.000
30.62000 1253.000
30.66500 1556.000
30.71000 1817.000
30.75500 2619.000
30.80000 3436.000
30.84500 2574.000
30.89000 1721.000
30.93500 1391.000
30.98000 1172.000
31.02500 1071.000
31.07000 1023.000
31.11500 974.000
31.16000 1062.000
31.20500 1104.000
31.25000 1111.000
31.29500 954.000
31.34000 866.000
31.38500 835.000
31.43000 835.000
31.47500 854.000
31.52000 859.000
31.56500 1006.000
31.61000 1374.000
31.65500 2070.000
31.70000 2256.000
31.74500 1621.000
31.79000 1172.000
31.83500 1091.000
31.88000 1027.000
31.92500 1049.000
31.97000 943.000
32.01500 1010.000
32.06000 1187.000
32.10500 1505.000
32.15000 1238.000
32.19500 997.000
32.24000 970.000
32.28500 931.000
32.33000 888.000
32.37500 835.000
32.42000 856.000
32.46500 808.000
32.51000 779.000
32.55500 778.000
32.60000 762.000
32.64500 752.000
32.69000 694.000
32.73500 726.000
32.78000 758.000
32.82500 732.000
32.87000 683.000
32.91500 688.000
32.96000 734.000
33.00500 709.000
33.05000 758.000
33.09500 826.000
33.14000 904.000
33.18500 1066.000
33.23000 1036.000
33.27500 939.000
33.32000 918.000
33.36500 897.000
33.41000 965.000
33.45500 868.000
33.50000 916.000
33.54500 953.000
33.59000 824.000
33.63500 893.000
33.68000 1093.000
33.72500 1375.000
33.77000 1124.000
33.81500 901.000
33.86000 867.000
33.90500 916.000
33.95000 1070.000
33.99500 1421.000
34.04000 1626.000
34.08500 1558.000
34.13000 914.000
34.17500 777.000
34.22000 720.000
34.26500 742.000
34.31000 685.000
34.35500 710.000
34.40000 736.000
34.44500 710.000
34.49000 799.000
34.53500 803.000
34.58000 962.000
34.62500 1029.000
34.67000 1155.000
34.71500 883.000
34.76000 831.000
34.80500 847.000
34.85000 901.000
34.89500 983.000
34.94000 1167.000
34.98500 1153.000
35.03000 1005.000
35.07500 904.000
35.12000 826.000
35.16500 800.000
35.21000 743.000
35.25500 699.000
35.30000 658.000
35.34500 666.000
35.39000 672.000
35.43500 664.000
35.48000 635.000
35.52500 590.000
35.57000 608.000
35.61500 632.000
35.66000 644.000
35.70500 685.000
35.75000 704.000
35.79500 759.000
35.84000 734.000
35.88500 647.000
35.93000 592.000
35.97500 569.000
36.02000 574.000
36.06500 603.000
36.11000 582.000
36.15500 557.000
36.20000 540.000
36.24500 507.000
36.29000 509.000
36.33500 551.000
36.38000 514.000
36.42500 508.000
36.47000 520.000
36.51500 506.000
36.56000 507.000
36.60500 505.000
36.65000 536.000
36.69500 571.000
36.74000 537.000
36.78500 526.000
36.83000 537.000
36.87500 590.000
36.92000 580.000
36.96500 624.000
37.01000 850.000
37.05500 966.000
37.10000 915.000
37.14500 707.000
37.19000 600.000
37.23500 565.000
37.28000 545.000
37.32500 533.000
37.37000 481.000
37.41500 526.000
37.46000 524.000
37.50500 517.000
37.55000 500.000
37.59500 493.000
37.64000 506.000
37.68500 477.000
37.73000 532.000
37.77500 512.000
37.82000 510.000
37.86500 507.000
37.91000 570.000
37.95500 538.000
38.00000 545.000
38.04500 547.000
38.09000 575.000
38.13500 608.000
38.18000 652.000
38.22500 774.000
38.27000 849.000
38.31500 891.000
38.36000 792.000
38.40500 721.000
38.45000 605.000
38.49500 621.000
38.54000 576.000
38.58500 571.000
38.63000 485.000
38.67500 533.000
38.72000 515.000
38.76500 503.000
38.81000 497.000
38.85500 510.000
38.90000 541.000
38.94500 557.000
38.99000 572.000
39.03500 556.000
39.08000 610.000
39.12500 543.000
39.17000 607.000
39.21500 550.000
39.26000 549.000
39.30500 602.000
39.35000 574.000
39.39500 586.000
39.44000 639.000
39.48500 690.000
39.53000 727.000
39.57500 637.000
39.62000 590.000
39.66500 530.000
39.71000 578.000
39.75500 595.000
39.80000 638.000
39.84500 762.000
39.89000 864.000
39.93500 790.000
39.98000 648.000
40.02500 646.000
40.07000 577.000
40.11500 557.000
40.16000 555.000
40.20500 555.000
40.25000 547.000
40.29500 549.000
40.34000 536.000
40.38500 610.000
40.43000 612.000
40.47500 678.000
40.52000 756.000
40.56500 942.000
40.61000 1043.000
40.65500 850.000
40.70000 621.000
40.74500 619.000
40.79000 677.000
40.83500 661.000
40.88000 657.000
40.92500 560.000
40.97000 649.000
41.01500 695.000
41.06000 870.000
41.10500 1101.000
41.15000 1045.000
41.19500 849.000
41.24000 872.000
41.28500 1061.000
41.33000 991.000
41.37500 659.000
41.42000 574.000
41.46500 532.000
41.51000 557.000
41.55500 490.000
41.60000 512.000
41.64500 545.000
41.69000 581.000
41.73500 599.000
41.78000 679.000
41.82500 624.000
41.87000 659.000
41.91500 727.000
41.96000 750.000
42.00500 780.000
42.05000 863.000
42.09500 1018.000
42.14000 1171.000
42.18500 1185.000
42.23000 981.000
42.27500 792.000
42.32000 623.000
42.36500 575.000
42.41000 531.000
42.45500 544.000
42.50000 531.000
42.54500 606.000
42.59000 667.000
42.63500 747.000
42.68000 608.000
42.72500 637.000
42.77000 610.000
42.81500 590.000
42.86000 561.000
42.90500 536.000
42.95000 496.000
42.99500 542.000
43.04000 559.000
43.08500 551.000
43.13000 493.000
43.17500 500.000
43.22000 493.000
43.26500 465.000
43.31000 480.000
43.35500 463.000
43.40000 488.000
43.44500 496.000
43.49000 488.000
43.53500 497.000
43.58000 478.000
43.62500 454.000
43.67000 519.000
43.71500 510.000
43.76000 532.000
43.80500 559.000
43.85000 525.000
43.89500 529.000
43.94000 501.000
43.98500 498.000
44.03000 536.000
44.07500 580.000
44.12000 706.000
44.16500 715.000
44.21000 895.000
44.25500 924.000
44.30000 833.000
44.34500 670.000
44.39000 562.000
44.43500 587.000
44.48000 585.000
44.52500 658.000
44.57000 672.000
44.61500 716.000
44.66000 687.000
44.70500 763.000
44.75000 686.000
44.79500 633.000
44.84000 592.000
44.88500 574.000
44.93000 666.000
44.97500 738.000
45.02000 834.000
45.06500 729.000
45.11000 870.000
45.15500 881.000
45.20000 608.000
45.24500 535.000
45.29000 546.000
45.33500 530.000
45.38000 538.000
45.42500 494.000
45.47000 497.000
45.51500 533.000
45.56000 516.000
45.60500 508.000
45.65000 517.000
45.69500 488.000
45.74000 494.000
45.78500 476.000
45.83000 476.000
45.87500 427.000
45.92000 444.000
45.96500 462.000
46.01000 481.000
46.05500 508.000
46.10000 498.000
46.14500 548.000
46.19000 645.000
46.23500 649.000
46.28000 692.000
46.32500 649.000
46.37000 710.000
46.41500 748.000
46.46000 693.000
46.50500 561.000
46.55000 524.000
46.59500 533.000
46.64000 556.000
46.68500 602.000
46.73000 638.000
46.77500 647.000
46.82000 737.000
46.86500 843.000
46.91000 907.000
46.95500 884.000
47.00000 976.000
47.04500 1043.000
47.09000 973.000
47.13500 809.000
47.18000 667.000
47.22500 642.000
47.27000 571.000
47.31500 572.000
47.36000 587.000
47.40500 638.000
47.45000 645.000
47.49500 661.000
47.54000 600.000
47.58500 648.000
47.63000 613.000
47.67500 690.000
47.72000 647.000
47.76500 572.000
47.81000 494.000
47.85500 469.000
47.90000 451.000
47.94500 420.000
47.99000 473.000
48.03500 449.000
48.08000 487.000
48.12500 451.000
48.17000 462.000
48.21500 510.000
48.26000 525.000
48.30500 524.000
48.35000 516.000
48.39500 566.000
48.44000 539.000
48.48500 544.000
48.53000 536.000
48.57500 536.000
48.62000 468.000
48.66500 504.000
48.71000 507.000
48.75500 454.000
48.80000 450.000
48.84500 463.000
48.89000 503.000
48.93500 520.000
48.98000 560.000
49.02500 625.000
49.07000 627.000
49.11500 504.000
49.16000 526.000
49.20500 496.000
49.25000 463.000
49.29500 488.000
49.34000 477.000
49.38500 478.000
49.43000 530.000
49.47500 626.000
49.52000 626.000
49.56500 780.000
49.61000 925.000
49.65500 983.000
49.70000 881.000
49.74500 668.000
49.79000 523.000
49.83500 495.000
49.88000 455.000
49.92500 458.000
49.97000 460.000
50.01500 437.000
50.06000 467.000
50.10500 523.000
50.15000 613.000
50.19500 669.000
50.24000 792.000
50.28500 717.000
50.33000 645.000
50.37500 628.000
50.42000 655.000
50.46500 747.000
50.51000 821.000
50.55500 687.000
50.60000 569.000
50.64500 528.000
50.69000 495.000
50.73500 501.000
50.78000 452.000
50.82500 467.000
50.87000 451.000
50.91500 454.000
50.96000 451.000
51.00500 432.000
51.05000 477.000
51.09500 432.000
51.14000 473.000
51.18500 433.000
51.23000 437.000
51.27500 468.000
51.32000 524.000
51.36500 561.000
51.41000 645.000
51.45500 754.000
51.50000 678.000
51.54500 620.000
51.59000 604.000
51.63500 645.000
51.68000 614.000
51.72500 624.000
51.77000 642.000
51.81500 688.000
51.86000 713.000
51.90500 671.000
51.95000 608.000
51.99500 565.000
52.04000 543.000
52.08500 550.000
52.13000 576.000
52.17500 567.000
52.22000 540.000
52.26500 457.000
52.31000 476.000
52.35500 460.000
52.40000 437.000
52.44500 411.000
52.49000 436.000
52.53500 414.000
52.58000 456.000
52.62500 421.000
52.67000 458.000
52.71500 416.000
52.76000 415.000
52.80500 418.000
52.85000 475.000
52.89500 497.000
52.94000 534.000
52.98500 528.000
53.03000 533.000
53.07500 502.000
53.12000 480.000
53.16500 504.000
53.21000 566.000
53.25500 582.000
53.30000 730.000
53.34500 833.000
53.39000 889.000
53.43500 844.000
53.48000 757.000
53.52500 650.000
53.57000 579.000
53.61500 530.000
53.66000 524.000
53.70500 517.000
53.75000 490.000
53.79500 440.000
53.84000 492.000
53.88500 494.000
53.93000 476.000
53.97500 566.000
54.02000 611.000
54.06500 687.000
54.11000 652.000
54.15500 595.000
54.20000 519.000
54.24500 503.000
54.29000 455.000
54.33500 485.000
54.38000 471.000
54.42500 445.000
54.47000 498.000
54.51500 490.000
54.56000 501.000
54.60500 521.000
54.65000 488.000
54.69500 522.000
54.74000 527.000
54.78500 561.000
54.83000 593.000
54.87500 633.000
54.92000 706.000
54.96500 736.000
55.01000 913.000
55.05500 986.000
55.10000 1068.000
55.14500 926.000
55.19000 758.000
55.23500 650.000
55.28000 629.000
55.32500 608.000
55.37000 541.000
55.41500 547.000
55.46000 574.000
55.50500 536.000
55.55000 477.000
55.59500 469.000
55.64000 424.000
55.68500 469.000
55.73000 479.000
55.77500 505.000
55.82000 508.000
55.86500 525.000
55.91000 481.000
55.95500 490.000
56.00000 437.000
56.04500 445.000
56.09000 450.000
56.13500 426.000
56.18000 396.000
56.22500 421.000
56.27000 389.000
56.31500 410.000
56.36000 427.000
56.40500 432.000
56.45000 421.000
56.49500 445.000
56.54000 426.000
56.58500 527.000
56.63000 562.000
56.67500 637.000
56.72000 668.000
56.76500 660.000
56.81000 556.000
56.85500 523.000
56.90000 524.000
56.94500 532.000
56.99000 551.000
57.03500 531.000
57.08000 555.000
57.12500 557.000
57.17000 582.000
57.21500 575.000
57.26000 592.000
57.30500 635.000
57.35000 676.000
57.39500 790.000
57.44000 672.000
57.48500 595.000
57.53000 523.000
57.57500 466.000
57.62000 453.000
57.66500 464.000
57.71000 389.000
57.75500 417.000
57.80000 402.000
57.84500 402.000
57.89000 381.000
57.93500 412.000
57.98000 415.000
58.02500 436.000
58.07000 444.000
58.11500 420.000
58.16000 399.000
58.20500 450.000
58.25000 421.000
58.29500 393.000
58.34000 421.000
58.38500 407.000
58.43000 354.000
58.47500 383.000
58.52000 368.000
58.56500 385.000
58.61000 376.000
58.65500 358.000
58.70000 394.000
58.74500 413.000
58.79000 360.000
58.83500 400.000
58.88000 396.000
58.92500 444.000
58.97000 469.000
59.01500 450.000
59.06000 395.000
59.10500 410.000
59.15000 379.000
59.19500 386.000
59.24000 387.000
59.28500 386.000
59.33000 380.000
59.37500 358.000
59.42000 371.000
59.46500 380.000
59.51000 374.000
59.55500 382.000
59.60000 370.000
59.64500 405.000
59.69000 380.000
59.73500 407.000
59.78000 420.000
59.82500 458.000
59.87000 466.000
59.91500 497.000
59.96000 550.000
60.00500 556.000
60.05000 474.000
60.09500 485.000
60.14000 443.000
60.18500 484.000
60.23000 516.000
60.27500 493.000
60.32000 534.000
60.36500 553.000
60.41000 546.000
60.45500 479.000
60.50000 465.000
60.54500 414.000
60.59000 418.000
60.63500 427.000
60.68000 433.000
60.72500 429.000
60.77000 401.000
60.81500 387.000
60.86000 397.000
60.90500 419.000
60.95000 397.000
60.99500 425.000
61.04000 381.000
61.08500 362.000
61.13000 345.000
61.17500 359.000
61.22000 364.000
61.26500 374.000
61.31000 333.000
61.35500 364.000
61.40000 375.000
61.44500 350.000
61.49000 352.000
61.53500 352.000
61.58000 370.000
61.62500 356.000
61.67000 369.000
61.71500 367.000
61.76000 351.000
61.80500 361.000
61.85000 353.000
61.89500 368.000
61.94000 342.000
61.98500 339.000