File: ISoD/xrd_data/HSC058.xyd
2.00000 6.000
2.04500 9.000
2.09000 5.000
2.13500 6.000
2.18000 8.000
2.22500 7.000
2.27000 3.000
2.31500 6.000
2.36000 1.000
2.40500 7.000
2.45000 4.000
2.49500 6.000
2.54000 4.000
2.58500 9.000
2.63000 7.000
2.67500 8.000
2.72000 1.000
2.76500 8.000
2.81000 6.000
2.85500 6.000
2.90000 3.000
2.94500 5.000
2.99000 6.000
3.03500 7.000
3.08000 4.000
3.12500 8.000
3.17000 8.000
3.21500 24.000
3.26000 37.000
3.30500 113.000
3.35000 246.000
3.39500 355.000
3.44000 486.000
3.48500 438.000
3.53000 422.000
3.57500 435.000
3.62000 443.000
3.66500 422.000
3.71000 426.000
3.75500 410.000
3.80000 405.000
3.84500 433.000
3.89000 397.000
3.93500 407.000
3.98000 409.000
4.02500 383.000
4.07000 424.000
4.11500 422.000
4.16000 406.000
4.20500 384.000
4.25000 404.000
4.29500 393.000
4.34000 408.000
4.38500 417.000
4.43000 399.000
4.47500 414.000
4.52000 403.000
4.56500 399.000
4.61000 412.000
4.65500 412.000
4.70000 387.000
4.74500 381.000
4.79000 388.000
4.83500 384.000
4.88000 410.000
4.92500 396.000
4.97000 412.000
5.01500 406.000
5.06000 427.000
5.10500 413.000
5.15000 406.000
5.19500 429.000
5.24000 397.000
5.28500 446.000
5.33000 409.000
5.37500 394.000
5.42000 396.000
5.46500 392.000
5.51000 421.000
5.55500 384.000
5.60000 405.000
5.64500 401.000
5.69000 404.000
5.73500 439.000
5.78000 439.000
5.82500 410.000
5.87000 414.000
5.91500 403.000
5.96000 428.000
6.00500 425.000
6.05000 413.000
6.09500 418.000
6.14000 427.000
6.18500 440.000
6.23000 426.000
6.27500 424.000
6.32000 410.000
6.36500 396.000
6.41000 443.000
6.45500 449.000
6.50000 416.000
6.54500 425.000
6.59000 438.000
6.63500 446.000
6.68000 441.000
6.72500 426.000
6.77000 440.000
6.81500 449.000
6.86000 441.000
6.90500 432.000
6.95000 456.000
6.99500 466.000
7.04000 441.000
7.08500 426.000
7.13000 462.000
7.17500 487.000
7.22000 450.000
7.26500 470.000
7.31000 450.000
7.35500 477.000
7.40000 457.000
7.44500 451.000
7.49000 433.000
7.53500 466.000
7.58000 444.000
7.62500 451.000
7.67000 461.000
7.71500 438.000
7.76000 439.000
7.80500 495.000
7.85000 429.000
7.89500 457.000
7.94000 455.000
7.98500 470.000
8.03000 453.000
8.07500 490.000
8.12000 463.000
8.16500 461.000
8.21000 484.000
8.25500 449.000
8.30000 484.000
8.34500 459.000
8.39000 469.000
8.43500 478.000
8.48000 459.000
8.52500 474.000
8.57000 489.000
8.61500 472.000
8.66000 466.000
8.70500 464.000
8.75000 483.000
8.79500 439.000
8.84000 501.000
8.88500 481.000
8.93000 498.000
8.97500 506.000
9.02000 489.000
9.06500 462.000
9.11000 489.000
9.15500 492.000
9.20000 494.000
9.24500 497.000
9.29000 495.000
9.33500 481.000
9.38000 482.000
9.42500 494.000
9.47000 483.000
9.51500 482.000
9.56000 487.000
9.60500 498.000
9.65000 492.000
9.69500 507.000
9.74000 495.000
9.78500 486.000
9.83000 500.000
9.87500 523.000
9.92000 511.000
9.96500 540.000
10.01000 509.000
10.05500 541.000
10.10000 491.000
10.14500 507.000
10.19000 498.000
10.23500 524.000
10.28000 481.000
10.32500 519.000
10.37000 515.000
10.41500 494.000
10.46000 560.000
10.50500 528.000
10.55000 475.000
10.59500 541.000
10.64000 520.000
10.68500 539.000
10.73000 526.000
10.77500 534.000
10.82000 517.000
10.86500 527.000
10.91000 536.000
10.95500 542.000
11.00000 562.000
11.04500 541.000
11.09000 538.000
11.13500 497.000
11.18000 549.000
11.22500 526.000
11.27000 536.000
11.31500 524.000
11.36000 533.000
11.40500 566.000
11.45000 538.000
11.49500 623.000
11.54000 559.000
11.58500 586.000
11.63000 566.000
11.67500 570.000
11.72000 572.000
11.76500 585.000
11.81000 541.000
11.85500 587.000
11.90000 587.000
11.94500 596.000
11.99000 608.000
12.03500 589.000
12.08000 571.000
12.12500 592.000
12.17000 635.000
12.21500 612.000
12.26000 624.000
12.30500 632.000
12.35000 660.000
12.39500 635.000
12.44000 652.000
12.48500 673.000
12.53000 732.000
12.57500 718.000
12.62000 718.000
12.66500 726.000
12.71000 747.000
12.75500 771.000
12.80000 756.000
12.84500 746.000
12.89000 795.000
12.93500 795.000
12.98000 775.000
13.02500 771.000
13.07000 797.000
13.11500 746.000
13.16000 765.000
13.20500 766.000
13.25000 774.000
13.29500 745.000
13.34000 787.000
13.38500 768.000
13.43000 751.000
13.47500 754.000
13.52000 715.000
13.56500 717.000
13.61000 769.000
13.65500 717.000
13.70000 722.000
13.74500 711.000
13.79000 691.000
13.83500 764.000
13.88000 740.000
13.92500 710.000
13.97000 717.000
14.01500 696.000
14.06000 708.000
14.10500 680.000
14.15000 722.000
14.19500 728.000
14.24000 725.000
14.28500 677.000
14.33000 710.000
14.37500 675.000
14.42000 720.000
14.46500 708.000
14.51000 702.000
14.55500 719.000
14.60000 706.000
14.64500 729.000
14.69000 660.000
14.73500 684.000
14.78000 676.000
14.82500 667.000
14.87000 658.000
14.91500 701.000
14.96000 672.000
15.00500 686.000
15.05000 691.000
15.09500 692.000
15.14000 658.000
15.18500 709.000
15.23000 687.000
15.27500 700.000
15.32000 699.000
15.36500 639.000
15.41000 676.000
15.45500 676.000
15.50000 667.000
15.54500 678.000
15.59000 658.000
15.63500 663.000
15.68000 632.000
15.72500 647.000
15.77000 623.000
15.81500 628.000
15.86000 632.000
15.90500 678.000
15.95000 644.000
15.99500 673.000
16.04000 627.000
16.08500 686.000
16.13000 622.000
16.17500 646.000
16.22000 672.000
16.26500 647.000
16.31000 673.000
16.35500 641.000
16.40000 688.000
16.44500 634.000
16.49000 650.000
16.53500 683.000
16.58000 657.000
16.62500 677.000
16.67000 642.000
16.71500 682.000
16.76000 656.000
16.80500 681.000
16.85000 676.000
16.89500 680.000
16.94000 613.000
16.98500 665.000
17.03000 690.000
17.07500 678.000
17.12000 677.000
17.16500 688.000
17.21000 705.000
17.25500 670.000
17.30000 713.000
17.34500 735.000
17.39000 666.000
17.43500 655.000
17.48000 694.000
17.52500 685.000
17.57000 686.000
17.61500 665.000
17.66000 697.000
17.70500 716.000
17.75000 682.000
17.79500 748.000
17.84000 740.000
17.88500 691.000
17.93000 698.000
17.97500 724.000
18.02000 681.000
18.06500 675.000
18.11000 733.000
18.15500 683.000
18.20000 699.000
18.24500 671.000
18.29000 693.000
18.33500 713.000
18.38000 656.000
18.42500 633.000
18.47000 697.000
18.51500 686.000
18.56000 683.000
18.60500 694.000
18.65000 665.000
18.69500 655.000
18.74000 709.000
18.78500 724.000
18.83000 688.000
18.87500 623.000
18.92000 665.000
18.96500 656.000
19.01000 663.000
19.05500 702.000
19.10000 680.000
19.14500 686.000
19.19000 682.000
19.23500 712.000
19.28000 678.000
19.32500 658.000
19.37000 671.000
19.41500 662.000
19.46000 643.000
19.50500 699.000
19.55000 646.000
19.59500 707.000
19.64000 695.000
19.68500 644.000
19.73000 668.000
19.77500 629.000
19.82000 678.000
19.86500 664.000
19.91000 702.000
19.95500 660.000
20.00000 674.000
20.04500 645.000
20.09000 659.000
20.13500 687.000
20.18000 689.000
20.22500 647.000
20.27000 669.000
20.31500 681.000
20.36000 674.000
20.40500 654.000
20.45000 661.000
20.49500 691.000
20.54000 669.000
20.58500 697.000
20.63000 681.000
20.67500 675.000
20.72000 661.000
20.76500 634.000
20.81000 663.000
20.85500 686.000
20.90000 667.000
20.94500 652.000
20.99000 669.000
21.03500 671.000
21.08000 677.000
21.12500 677.000
21.17000 664.000
21.21500 691.000
21.26000 702.000
21.30500 698.000
21.35000 709.000
21.39500 641.000
21.44000 687.000
21.48500 675.000
21.53000 681.000
21.57500 681.000
21.62000 669.000
21.66500 689.000
21.71000 686.000
21.75500 690.000
21.80000 709.000
21.84500 705.000
21.89000 663.000
21.93500 698.000
21.98000 718.000
22.02500 701.000
22.07000 670.000
22.11500 688.000
22.16000 681.000
22.20500 699.000
22.25000 704.000
22.29500 691.000
22.34000 702.000
22.38500 682.000
22.43000 674.000
22.47500 668.000
22.52000 664.000
22.56500 644.000
22.61000 692.000
22.65500 671.000
22.70000 689.000
22.74500 695.000
22.79000 670.000
22.83500 648.000
22.88000 666.000
22.92500 656.000
22.97000 688.000
23.01500 693.000
23.06000 688.000
23.10500 633.000
23.15000 661.000
23.19500 679.000
23.24000 673.000
23.28500 646.000
23.33000 617.000
23.37500 701.000
23.42000 669.000
23.46500 659.000
23.51000 703.000
23.55500 672.000
23.60000 687.000
23.64500 669.000
23.69000 631.000
23.73500 735.000
23.78000 664.000
23.82500 731.000
23.87000 653.000
23.91500 662.000
23.96000 664.000
24.00500 717.000
24.05000 696.000
24.09500 691.000
24.14000 650.000
24.18500 685.000
24.23000 713.000
24.27500 689.000
24.32000 719.000
24.36500 651.000
24.41000 645.000
24.45500 699.000
24.50000 694.000
24.54500 665.000
24.59000 683.000
24.63500 705.000
24.68000 695.000
24.72500 698.000
24.77000 717.000
24.81500 710.000
24.86000 721.000
24.90500 739.000
24.95000 674.000
24.99500 741.000
25.04000 750.000
25.08500 755.000
25.13000 732.000
25.17500 765.000
25.22000 736.000
25.26500 757.000
25.31000 746.000
25.35500 783.000
25.40000 741.000
25.44500 765.000
25.49000 831.000
25.53500 805.000
25.58000 816.000
25.62500 853.000
25.67000 817.000
25.71500 818.000
25.76000 842.000
25.80500 893.000
25.85000 882.000
25.89500 882.000
25.94000 918.000
25.98500 935.000
26.03000 941.000
26.07500 919.000
26.12000 1001.000
26.16500 1032.000
26.21000 1037.000
26.25500 1030.000
26.30000 1094.000
26.34500 1154.000
26.39000 1185.000
26.43500 1260.000
26.48000 1267.000
26.52500 1255.000
26.57000 1470.000
26.61500 1462.000
26.66000 1384.000
26.70500 1508.000
26.75000 1631.000
26.79500 1583.000
26.84000 1696.000
26.88500 1822.000
26.93000 1851.000
26.97500 1960.000
27.02000 1999.000
27.06500 2168.000
27.11000 2158.000
27.15500 2287.000
27.20000 2290.000
27.24500 2419.000
27.29000 2476.000
27.33500 2548.000
27.38000 2564.000
27.42500 2601.000
27.47000 2614.000
27.51500 2622.000
27.56000 2615.000
27.60500 2661.000
27.65000 2512.000
27.69500 2476.000
27.74000 2314.000
27.78500 2293.000
27.83000 2093.000
27.87500 1938.000
27.92000 1802.000
27.96500 1733.000
28.01000 1610.000
28.05500 1593.000
28.10000 1464.000
28.14500 1417.000
28.19000 1325.000
28.23500 1348.000
28.28000 1170.000
28.32500 1151.000
28.37000 1101.000
28.41500 1068.000
28.46000 1020.000
28.50500 956.000
28.55000 945.000
28.59500 931.000
28.64000 938.000
28.68500 893.000
28.73000 890.000
28.77500 879.000
28.82000 829.000
28.86500 783.000
28.91000 770.000
28.95500 766.000
29.00000 774.000
29.04500 757.000
29.09000 750.000
29.13500 743.000
29.18000 700.000
29.22500 749.000
29.27000 708.000
29.31500 691.000
29.36000 695.000
29.40500 772.000
29.45000 686.000
29.49500 691.000
29.54000 666.000
29.58500 696.000
29.63000 624.000
29.67500 647.000
29.72000 636.000
29.76500 617.000
29.81000 604.000
29.85500 575.000
29.90000 591.000
29.94500 592.000
29.99000 595.000
30.03500 572.000
30.08000 598.000
30.12500 581.000
30.17000 607.000
30.21500 591.000
30.26000 607.000
30.30500 572.000
30.35000 531.000
30.39500 578.000
30.44000 595.000
30.48500 577.000
30.53000 562.000
30.57500 573.000
30.62000 537.000
30.66500 556.000
30.71000 569.000
30.75500 537.000
30.80000 565.000
30.84500 554.000
30.89000 591.000
30.93500 538.000
30.98000 496.000
31.02500 533.000
31.07000 549.000
31.11500 535.000
31.16000 493.000
31.20500 549.000
31.25000 528.000
31.29500 485.000
31.34000 549.000
31.38500 532.000
31.43000 472.000
31.47500 502.000
31.52000 494.000
31.56500 500.000
31.61000 482.000
31.65500 487.000
31.70000 504.000
31.74500 475.000
31.79000 469.000
31.83500 496.000
31.88000 481.000
31.92500 479.000
31.97000 452.000
32.01500 462.000
32.06000 496.000
32.10500 434.000
32.15000 489.000
32.19500 489.000
32.24000 491.000
32.28500 510.000
32.33000 486.000
32.37500 445.000
32.42000 457.000
32.46500 454.000
32.51000 445.000
32.55500 469.000
32.60000 447.000
32.64500 493.000
32.69000 454.000
32.73500 440.000
32.78000 428.000
32.82500 427.000
32.87000 439.000
32.91500 432.000
32.96000 401.000
33.00500 446.000
33.05000 425.000
33.09500 442.000
33.14000 428.000
33.18500 423.000
33.23000 419.000
33.27500 427.000
33.32000 441.000
33.36500 413.000
33.41000 440.000
33.45500 418.000
33.50000 417.000
33.54500 418.000
33.59000 394.000
33.63500 437.000
33.68000 452.000
33.72500 413.000
33.77000 381.000
33.81500 391.000
33.86000 414.000
33.90500 395.000
33.95000 413.000
33.99500 379.000
34.04000 390.000
34.08500 391.000
34.13000 405.000
34.17500 416.000
34.22000 391.000
34.26500 379.000
34.31000 414.000
34.35500 407.000
34.40000 395.000
34.44500 359.000
34.49000 408.000
34.53500 400.000
34.58000 351.000
34.62500 365.000
34.67000 393.000
34.71500 384.000
34.76000 386.000
34.80500 405.000
34.85000 387.000
34.89500 414.000
34.94000 365.000
34.98500 357.000
35.03000 367.000
35.07500 360.000
35.12000 376.000
35.16500 372.000
35.21000 398.000
35.25500 382.000
35.30000 354.000
35.34500 363.000
35.39000 376.000
35.43500 391.000
35.48000 364.000
35.52500 385.000
35.57000 378.000
35.61500 399.000
35.66000 368.000
35.70500 347.000
35.75000 377.000
35.79500 342.000
35.84000 367.000
35.88500 383.000
35.93000 362.000
35.97500 350.000
36.02000 357.000
36.06500 350.000
36.11000 394.000
36.15500 349.000
36.20000 359.000
36.24500 324.000
36.29000 353.000
36.33500 316.000
36.38000 356.000
36.42500 324.000
36.47000 343.000
36.51500 341.000
36.56000 329.000
36.60500 334.000
36.65000 343.000
36.69500 343.000
36.74000 332.000
36.78500 349.000
36.83000 333.000
36.87500 322.000
36.92000 353.000
36.96500 304.000
37.01000 337.000
37.05500 317.000
37.10000 350.000
37.14500 320.000
37.19000 327.000
37.23500 347.000
37.28000 318.000
37.32500 333.000
37.37000 357.000
37.41500 317.000
37.46000 331.000
37.50500 340.000
37.55000 307.000
37.59500 315.000
37.64000 315.000
37.68500 297.000
37.73000 314.000
37.77500 313.000
37.82000 338.000
37.86500 321.000
37.91000 328.000
37.95500 308.000
38.00000 301.000
38.04500 318.000
38.09000 310.000
38.13500 335.000
38.18000 293.000
38.22500 311.000
38.27000 308.000
38.31500 316.000
38.36000 320.000
38.40500 325.000
38.45000 349.000
38.49500 306.000
38.54000 301.000
38.58500 320.000
38.63000 329.000
38.67500 323.000
38.72000 300.000
38.76500 310.000
38.81000 312.000
38.85500 311.000
38.90000 315.000
38.94500 339.000
38.99000 310.000
39.03500 321.000
39.08000 292.000
39.12500 336.000
39.17000 313.000
39.21500 318.000
39.26000 321.000
39.30500 309.000
39.35000 314.000
39.39500 323.000
39.44000 325.000
39.48500 323.000
39.53000 326.000
39.57500 311.000
39.62000 327.000
39.66500 348.000
39.71000 330.000
39.75500 317.000
39.80000 329.000
39.84500 307.000
39.89000 282.000
39.93500 322.000
39.98000 308.000
40.02500 328.000
40.07000 284.000
40.11500 298.000
40.16000 294.000
40.20500 333.000
40.25000 299.000
40.29500 306.000
40.34000 326.000
40.38500 309.000
40.43000 310.000
40.47500 313.000
40.52000 298.000
40.56500 311.000
40.61000 297.000
40.65500 309.000
40.70000 318.000
40.74500 315.000
40.79000 304.000
40.83500 313.000
40.88000 300.000
40.92500 291.000
40.97000 313.000
41.01500 305.000
41.06000 319.000
41.10500 288.000
41.15000 326.000
41.19500 332.000
41.24000 304.000
41.28500 322.000
41.33000 286.000
41.37500 292.000
41.42000 277.000
41.46500 300.000
41.51000 315.000
41.55500 303.000
41.60000 331.000
41.64500 315.000
41.69000 278.000
41.73500 309.000
41.78000 281.000
41.82500 317.000
41.87000 291.000
41.91500 293.000
41.96000 309.000
42.00500 334.000
42.05000 314.000
42.09500 316.000
42.14000 310.000
42.18500 294.000
42.23000 324.000
42.27500 312.000
42.32000 328.000
42.36500 302.000
42.41000 292.000
42.45500 319.000
42.50000 273.000
42.54500 313.000
42.59000 320.000
42.63500 310.000
42.68000 312.000
42.72500 341.000
42.77000 314.000
42.81500 310.000
42.86000 321.000
42.90500 327.000
42.95000 300.000
42.99500 314.000
43.04000 325.000
43.08500 339.000
43.13000 324.000
43.17500 338.000
43.22000 327.000
43.26500 320.000
43.31000 313.000
43.35500 293.000
43.40000 315.000
43.44500 341.000
43.49000 327.000
43.53500 354.000
43.58000 323.000
43.62500 336.000
43.67000 340.000
43.71500 329.000
43.76000 336.000
43.80500 375.000
43.85000 312.000
43.89500 293.000
43.94000 321.000
43.98500 326.000
44.03000 336.000
44.07500 342.000
44.12000 346.000
44.16500 349.000
44.21000 318.000
44.25500 355.000
44.30000 329.000
44.34500 345.000
44.39000 317.000
44.43500 354.000
44.48000 318.000
44.52500 337.000
44.57000 303.000
44.61500 360.000
44.66000 335.000
44.70500 305.000
44.75000 343.000
44.79500 365.000
44.84000 366.000
44.88500 334.000
44.93000 323.000
44.97500 332.000
45.02000 321.000
45.06500 322.000
45.11000 305.000
45.15500 318.000
45.20000 317.000
45.24500 321.000
45.29000 289.000
45.33500 330.000
45.38000 323.000
45.42500 311.000
45.47000 333.000
45.51500 319.000
45.56000 326.000
45.60500 332.000
45.65000 310.000
45.69500 326.000
45.74000 317.000
45.78500 291.000
45.83000 305.000
45.87500 319.000
45.92000 292.000
45.96500 327.000
46.01000 326.000
46.05500 303.000
46.10000 328.000
46.14500 310.000
46.19000 323.000
46.23500 313.000
46.28000 323.000
46.32500 306.000
46.37000 306.000
46.41500 305.000
46.46000 297.000
46.50500 316.000
46.55000 304.000
46.59500 302.000
46.64000 272.000
46.68500 276.000
46.73000 321.000
46.77500 284.000
46.82000 301.000
46.86500 278.000
46.91000 281.000
46.95500 315.000
47.00000 287.000
47.04500 309.000
47.09000 294.000
47.13500 298.000
47.18000 283.000
47.22500 306.000
47.27000 281.000
47.31500 320.000
47.36000 286.000
47.40500 298.000
47.45000 293.000
47.49500 277.000
47.54000 286.000
47.58500 300.000
47.63000 284.000
47.67500 289.000
47.72000 278.000
47.76500 289.000
47.81000 278.000
47.85500 302.000
47.90000 279.000
47.94500 295.000
47.99000 260.000
48.03500 282.000
48.08000 285.000
48.12500 291.000
48.17000 262.000
48.21500 296.000
48.26000 274.000
48.30500 270.000
48.35000 263.000
48.39500 281.000
48.44000 263.000
48.48500 278.000
48.53000 274.000
48.57500 251.000
48.62000 288.000
48.66500 260.000
48.71000 297.000
48.75500 271.000
48.80000 285.000
48.84500 269.000
48.89000 274.000
48.93500 292.000
48.98000 260.000
49.02500 269.000
49.07000 271.000
49.11500 261.000
49.16000 251.000
49.20500 251.000
49.25000 254.000
49.29500 255.000
49.34000 263.000
49.38500 262.000
49.43000 274.000
49.47500 270.000
49.52000 262.000
49.56500 273.000
49.61000 287.000
49.65500 277.000
49.70000 246.000
49.74500 242.000
49.79000 276.000
49.83500 243.000
49.88000 249.000
49.92500 274.000
49.97000 275.000
50.01500 277.000
50.06000 283.000
50.10500 267.000
50.15000 292.000
50.19500 271.000
50.24000 254.000
50.28500 262.000
50.33000 253.000
50.37500 245.000
50.42000 252.000
50.46500 240.000
50.51000 260.000
50.55500 252.000
50.60000 264.000
50.64500 275.000
50.69000 263.000
50.73500 293.000
50.78000 253.000
50.82500 256.000
50.87000 250.000
50.91500 259.000
50.96000 252.000
51.00500 264.000
51.05000 250.000
51.09500 253.000
51.14000 252.000
51.18500 271.000
51.23000 269.000
51.27500 244.000
51.32000 273.000
51.36500 260.000
51.41000 274.000
51.45500 245.000
51.50000 274.000
51.54500 256.000
51.59000 249.000
51.63500 255.000
51.68000 254.000
51.72500 278.000
51.77000 254.000
51.81500 250.000
51.86000 273.000
51.90500 272.000
51.95000 266.000
51.99500 264.000
52.04000 256.000
52.08500 251.000
52.13000 263.000
52.17500 274.000
52.22000 279.000
52.26500 259.000
52.31000 268.000
52.35500 256.000
52.40000 263.000
52.44500 237.000
52.49000 271.000
52.53500 263.000
52.58000 261.000
52.62500 251.000
52.67000 224.000
52.71500 261.000
52.76000 266.000
52.80500 256.000
52.85000 248.000
52.89500 240.000
52.94000 239.000
52.98500 256.000
53.03000 254.000
53.07500 235.000
53.12000 262.000
53.16500 253.000
53.21000 248.000
53.25500 232.000
53.30000 262.000
53.34500 239.000
53.39000 250.000
53.43500 237.000
53.48000 241.000
53.52500 246.000
53.57000 251.000
53.61500 223.000
53.66000 236.000
53.70500 230.000
53.75000 256.000
53.79500 246.000
53.84000 240.000
53.88500 275.000
53.93000 256.000
53.97500 244.000
54.02000 227.000
54.06500 243.000
54.11000 244.000
54.15500 242.000
54.20000 233.000
54.24500 250.000
54.29000 256.000
54.33500 233.000
54.38000 247.000
54.42500 233.000
54.47000 253.000
54.51500 231.000
54.56000 246.000
54.60500 252.000
54.65000 231.000
54.69500 242.000
54.74000 237.000
54.78500 242.000
54.83000 236.000
54.87500 257.000
54.92000 251.000
54.96500 257.000
55.01000 222.000
55.05500 247.000
55.10000 242.000
55.14500 237.000
55.19000 252.000
55.23500 242.000
55.28000 235.000
55.32500 234.000
55.37000 266.000
55.41500 272.000
55.46000 252.000
55.50500 242.000
55.55000 254.000
55.59500 258.000
55.64000 250.000
55.68500 255.000
55.73000 225.000
55.77500 228.000
55.82000 250.000
55.86500 255.000
55.91000 265.000
55.95500 258.000
56.00000 244.000
56.04500 275.000
56.09000 259.000
56.13500 263.000
56.18000 266.000
56.22500 264.000
56.27000 272.000
56.31500 279.000
56.36000 272.000
56.40500 275.000
56.45000 278.000
56.49500 281.000
56.54000 274.000
56.58500 276.000
56.63000 292.000
56.67500 272.000
56.72000 274.000
56.76500 251.000
56.81000 282.000
56.85500 262.000
56.90000 257.000
56.94500 262.000
56.99000 274.000
57.03500 287.000
57.08000 242.000
57.12500 268.000
57.17000 249.000
57.21500 249.000
57.26000 254.000
57.30500 258.000
57.35000 276.000
57.39500 251.000
57.44000 245.000
57.48500 251.000
57.53000 269.000
57.57500 241.000
57.62000 256.000
57.66500 254.000
57.71000 237.000
57.75500 243.000
57.80000 250.000
57.84500 244.000
57.89000 238.000
57.93500 233.000
57.98000 213.000
58.02500 231.000
58.07000 245.000
58.11500 231.000
58.16000 224.000
58.20500 228.000
58.25000 230.000
58.29500 238.000
58.34000 211.000
58.38500 220.000
58.43000 227.000
58.47500 233.000
58.52000 234.000
58.56500 219.000
58.61000 211.000
58.65500 194.000
58.70000 210.000
58.74500 206.000
58.79000 211.000
58.83500 210.000
58.88000 217.000
58.92500 238.000
58.97000 240.000
59.01500 202.000
59.06000 224.000
59.10500 226.000
59.15000 230.000
59.19500 237.000
59.24000 202.000
59.28500 199.000
59.33000 185.000
59.37500 191.000
59.42000 207.000
59.46500 217.000
59.51000 221.000
59.55500 224.000
59.60000 213.000
59.64500 220.000
59.69000 209.000
59.73500 214.000
59.78000 192.000
59.82500 209.000
59.87000 213.000
59.91500 215.000
59.96000 207.000
60.00500 215.000
60.05000 188.000
60.09500 210.000
60.14000 189.000
60.18500 203.000
60.23000 199.000
60.27500 211.000
60.32000 214.000
60.36500 190.000
60.41000 196.000
60.45500 196.000
60.50000 208.000
60.54500 213.000
60.59000 186.000
60.63500 185.000
60.68000 187.000
60.72500 187.000
60.77000 193.000
60.81500 189.000
60.86000 208.000
60.90500 200.000
60.95000 198.000
60.99500 189.000
61.04000 181.000
61.08500 193.000
61.13000 212.000
61.17500 204.000
61.22000 183.000
61.26500 200.000
61.31000 200.000
61.35500 200.000
61.40000 218.000
61.44500 188.000
61.49000 195.000
61.53500 186.000
61.58000 181.000
61.62500 187.000
61.67000 198.000
61.71500 190.000
61.76000 207.000
61.80500 196.000
61.85000 183.000
61.89500 184.000
61.94000 194.000
61.98500 179.000