File: ISoD/xrd_data/HSC026_nachH2O_range_2.xy
2.00000 419.000
2.04500 425.000
2.09000 402.000
2.13500 374.000
2.18000 377.000
2.22500 323.000
2.27000 341.000
2.31500 321.000
2.36000 309.000
2.40500 293.000
2.45000 261.000
2.49500 275.000
2.54000 246.000
2.58500 245.000
2.63000 247.000
2.67500 223.000
2.72000 229.000
2.76500 229.000
2.81000 225.000
2.85500 222.000
2.90000 213.000
2.94500 202.000
2.99000 211.000
3.03500 183.000
3.08000 182.000
3.12500 165.000
3.17000 203.000
3.21500 197.000
3.26000 160.000
3.30500 165.000
3.35000 160.000
3.39500 159.000
3.44000 164.000
3.48500 163.000
3.53000 176.000
3.57500 171.000
3.62000 174.000
3.66500 140.000
3.71000 156.000
3.75500 147.000
3.80000 163.000
3.84500 152.000
3.89000 150.000
3.93500 142.000
3.98000 146.000
4.02500 140.000
4.07000 179.000
4.11500 162.000
4.16000 139.000
4.20500 142.000
4.25000 139.000
4.29500 169.000
4.34000 142.000
4.38500 136.000
4.43000 137.000
4.47500 170.000
4.52000 148.000
4.56500 136.000
4.61000 137.000
4.65500 132.000
4.70000 143.000
4.74500 143.000
4.79000 134.000
4.83500 134.000
4.88000 143.000
4.92500 126.000
4.97000 150.000
5.01500 140.000
5.06000 142.000
5.10500 130.000
5.15000 132.000
5.19500 124.000
5.24000 128.000
5.28500 142.000
5.33000 152.000
5.37500 149.000
5.42000 146.000
5.46500 137.000
5.51000 145.000
5.55500 180.000
5.60000 161.000
5.64500 152.000
5.69000 141.000
5.73500 135.000
5.78000 148.000
5.82500 137.000
5.87000 152.000
5.91500 147.000
5.96000 157.000
6.00500 149.000
6.05000 148.000
6.09500 145.000
6.14000 126.000
6.18500 159.000
6.23000 136.000
6.27500 169.000
6.32000 129.000
6.36500 142.000
6.41000 149.000
6.45500 154.000
6.50000 132.000
6.54500 143.000
6.59000 152.000
6.63500 153.000
6.68000 149.000
6.72500 143.000
6.77000 159.000
6.81500 145.000
6.86000 144.000
6.90500 144.000
6.95000 127.000
6.99500 113.000
7.04000 138.000
7.08500 148.000
7.13000 146.000
7.17500 159.000
7.22000 134.000
7.26500 150.000
7.31000 145.000
7.35500 152.000
7.40000 144.000
7.44500 151.000
7.49000 163.000
7.53500 156.000
7.58000 140.000
7.62500 142.000
7.67000 130.000
7.71500 138.000
7.76000 147.000
7.80500 146.000
7.85000 160.000
7.89500 149.000
7.94000 155.000
7.98500 152.000
8.03000 156.000
8.07500 149.000
8.12000 154.000
8.16500 147.000
8.21000 159.000
8.25500 152.000
8.30000 167.000
8.34500 175.000
8.39000 176.000
8.43500 171.000
8.48000 165.000
8.52500 203.000
8.57000 166.000
8.61500 221.000
8.66000 183.000
8.70500 183.000
8.75000 180.000
8.79500 184.000
8.84000 142.000
8.88500 174.000
8.93000 166.000
8.97500 147.000
9.02000 151.000
9.06500 145.000
9.11000 171.000
9.15500 157.000
9.20000 145.000
9.24500 140.000
9.29000 165.000
9.33500 150.000
9.38000 138.000
9.42500 137.000
9.47000 158.000
9.51500 140.000
9.56000 150.000
9.60500 141.000
9.65000 149.000
9.69500 149.000
9.74000 143.000
9.78500 153.000
9.83000 131.000
9.87500 140.000
9.92000 161.000
9.96500 155.000
10.01000 178.000
10.05500 179.000
10.10000 173.000
10.14500 153.000
10.19000 134.000
10.23500 148.000
10.28000 150.000
10.32500 141.000
10.37000 163.000
10.41500 164.000
10.46000 157.000
10.50500 144.000
10.55000 145.000
10.59500 154.000
10.64000 154.000
10.68500 154.000
10.73000 168.000
10.77500 146.000
10.82000 143.000
10.86500 166.000
10.91000 172.000
10.95500 180.000
11.00000 159.000
11.04500 163.000
11.09000 190.000
11.13500 192.000
11.18000 200.000
11.22500 221.000
11.27000 223.000
11.31500 252.000
11.36000 292.000
11.40500 363.000
11.45000 411.000
11.49500 463.000
11.54000 444.000
11.58500 466.000
11.63000 392.000
11.67500 347.000
11.72000 348.000
11.76500 336.000
11.81000 302.000
11.85500 307.000
11.90000 296.000
11.94500 251.000
11.99000 227.000
12.03500 222.000
12.08000 184.000
12.12500 163.000
12.17000 177.000
12.21500 175.000
12.26000 140.000
12.30500 145.000
12.35000 140.000
12.39500 167.000
12.44000 168.000
12.48500 167.000
12.53000 162.000
12.57500 163.000
12.62000 148.000
12.66500 148.000
12.71000 169.000
12.75500 190.000
12.80000 176.000
12.84500 185.000
12.89000 184.000
12.93500 190.000
12.98000 179.000
13.02500 179.000
13.07000 201.000
13.11500 187.000
13.16000 173.000
13.20500 181.000
13.25000 196.000
13.29500 171.000
13.34000 186.000
13.38500 188.000
13.43000 170.000
13.47500 154.000
13.52000 146.000
13.56500 130.000
13.61000 156.000
13.65500 165.000
13.70000 156.000
13.74500 168.000
13.79000 136.000
13.83500 144.000
13.88000 136.000
13.92500 158.000
13.97000 146.000
14.01500 151.000
14.06000 133.000
14.10500 152.000
14.15000 164.000
14.19500 160.000
14.24000 150.000
14.28500 154.000
14.33000 156.000
14.37500 139.000
14.42000 154.000
14.46500 149.000
14.51000 140.000
14.55500 150.000
14.60000 162.000
14.64500 180.000
14.69000 141.000
14.73500 146.000
14.78000 174.000
14.82500 157.000
14.87000 148.000
14.91500 149.000
14.96000 162.000
15.00500 155.000
15.05000 151.000
15.09500 158.000
15.14000 143.000
15.18500 166.000
15.23000 139.000
15.27500 169.000
15.32000 143.000
15.36500 156.000
15.41000 153.000
15.45500 145.000
15.50000 146.000
15.54500 164.000
15.59000 142.000
15.63500 143.000
15.68000 156.000
15.72500 164.000
15.77000 165.000
15.81500 155.000
15.86000 169.000
15.90500 157.000
15.95000 146.000
15.99500 152.000
16.04000 155.000
16.08500 159.000
16.13000 153.000
16.17500 161.000
16.22000 168.000
16.26500 180.000
16.31000 158.000
16.35500 144.000
16.40000 179.000
16.44500 138.000
16.49000 174.000
16.53500 162.000
16.58000 157.000
16.62500 140.000
16.67000 163.000
16.71500 158.000
16.76000 166.000
16.80500 151.000
16.85000 176.000
16.89500 161.000
16.94000 176.000
16.98500 152.000
17.03000 159.000
17.07500 157.000
17.12000 157.000
17.16500 170.000
17.21000 169.000
17.25500 188.000
17.30000 174.000
17.34500 169.000
17.39000 159.000
17.43500 165.000
17.48000 158.000
17.52500 143.000
17.57000 162.000
17.61500 159.000
17.66000 157.000
17.70500 160.000
17.75000 184.000
17.79500 153.000
17.84000 174.000
17.88500 192.000
17.93000 173.000
17.97500 175.000
18.02000 162.000
18.06500 192.000
18.11000 170.000
18.15500 192.000
18.20000 192.000
18.24500 180.000
18.29000 168.000
18.33500 215.000
18.38000 165.000
18.42500 188.000
18.47000 190.000
18.51500 188.000
18.56000 210.000
18.60500 179.000
18.65000 187.000
18.69500 194.000
18.74000 180.000
18.78500 195.000
18.83000 182.000
18.87500 188.000
18.92000 165.000
18.96500 193.000
19.01000 197.000
19.05500 174.000
19.10000 181.000
19.14500 215.000
19.19000 213.000
19.23500 190.000
19.28000 181.000
19.32500 176.000
19.37000 187.000
19.41500 195.000
19.46000 177.000
19.50500 182.000
19.55000 180.000
19.59500 196.000
19.64000 207.000
19.68500 190.000
19.73000 190.000
19.77500 183.000
19.82000 183.000
19.86500 182.000
19.91000 180.000
19.95500 187.000
20.00000 185.000
20.04500 198.000
20.09000 207.000
20.13500 194.000
20.18000 184.000
20.22500 218.000
20.27000 193.000
20.31500 216.000
20.36000 187.000
20.40500 202.000
20.45000 210.000
20.49500 205.000
20.54000 194.000
20.58500 202.000
20.63000 207.000
20.67500 181.000
20.72000 207.000
20.76500 201.000
20.81000 189.000
20.85500 200.000
20.90000 206.000
20.94500 210.000
20.99000 201.000
21.03500 215.000
21.08000 204.000
21.12500 205.000
21.17000 208.000
21.21500 190.000
21.26000 190.000
21.30500 209.000
21.35000 182.000
21.39500 222.000
21.44000 204.000
21.48500 205.000
21.53000 219.000
21.57500 209.000
21.62000 228.000
21.66500 219.000
21.71000 209.000
21.75500 208.000
21.80000 219.000
21.84500 201.000
21.89000 202.000
21.93500 236.000
21.98000 226.000
22.02500 189.000
22.07000 214.000
22.11500 197.000
22.16000 209.000
22.20500 214.000
22.25000 233.000
22.29500 210.000
22.34000 217.000
22.38500 194.000
22.43000 217.000
22.47500 256.000
22.52000 222.000
22.56500 205.000
22.61000 220.000
22.65500 244.000
22.70000 238.000
22.74500 197.000
22.79000 201.000
22.83500 204.000
22.88000 243.000
22.92500 220.000
22.97000 222.000
23.01500 267.000
23.06000 202.000
23.10500 243.000
23.15000 240.000
23.19500 225.000
23.24000 254.000
23.28500 236.000
23.33000 235.000
23.37500 235.000
23.42000 209.000
23.46500 241.000
23.51000 239.000
23.55500 260.000
23.60000 226.000
23.64500 241.000
23.69000 228.000
23.73500 218.000
23.78000 227.000
23.82500 245.000
23.87000 256.000
23.91500 223.000
23.96000 239.000
24.00500 250.000
24.05000 219.000
24.09500 253.000
24.14000 230.000
24.18500 244.000
24.23000 230.000
24.27500 281.000
24.32000 250.000
24.36500 233.000
24.41000 246.000
24.45500 272.000
24.50000 246.000
24.54500 266.000
24.59000 259.000
24.63500 242.000
24.68000 247.000
24.72500 269.000
24.77000 263.000
24.81500 258.000
24.86000 258.000
24.90500 277.000
24.95000 274.000
24.99500 316.000
25.04000 324.000
25.08500 313.000
25.13000 302.000
25.17500 306.000
25.22000 317.000
25.26500 341.000
25.31000 357.000
25.35500 372.000
25.40000 410.000
25.44500 408.000
25.49000 455.000
25.53500 468.000
25.58000 487.000
25.62500 433.000
25.67000 410.000
25.71500 372.000
25.76000 334.000
25.80500 332.000
25.85000 325.000
25.89500 338.000
25.94000 298.000
25.98500 314.000
26.03000 280.000
26.07500 295.000
26.12000 283.000
26.16500 287.000
26.21000 290.000
26.25500 272.000
26.30000 262.000
26.34500 252.000
26.39000 294.000
26.43500 284.000
26.48000 295.000
26.52500 286.000
26.57000 307.000
26.61500 295.000
26.66000 273.000
26.70500 289.000
26.75000 315.000
26.79500 277.000
26.84000 303.000
26.88500 301.000
26.93000 341.000
26.97500 328.000
27.02000 376.000
27.06500 370.000
27.11000 412.000
27.15500 417.000
27.20000 394.000
27.24500 401.000
27.29000 413.000
27.33500 453.000
27.38000 465.000
27.42500 463.000
27.47000 476.000
27.51500 481.000
27.56000 428.000
27.60500 418.000
27.65000 371.000
27.69500 358.000
27.74000 291.000
27.78500 297.000
27.83000 316.000
27.87500 240.000
27.92000 264.000
27.96500 242.000
28.01000 256.000
28.05500 263.000
28.10000 213.000
28.14500 231.000
28.19000 230.000
28.23500 211.000
28.28000 204.000
28.32500 218.000
28.37000 244.000
28.41500 218.000
28.46000 222.000
28.50500 210.000
28.55000 216.000
28.59500 202.000
28.64000 205.000
28.68500 211.000
28.73000 208.000
28.77500 207.000
28.82000 198.000
28.86500 203.000
28.91000 196.000
28.95500 186.000
29.00000 210.000
29.04500 176.000
29.09000 216.000
29.13500 191.000
29.18000 183.000
29.22500 189.000
29.27000 193.000
29.31500 204.000
29.36000 218.000
29.40500 186.000
29.45000 200.000
29.49500 219.000
29.54000 208.000
29.58500 190.000
29.63000 184.000
29.67500 198.000
29.72000 210.000
29.76500 205.000
29.81000 206.000
29.85500 198.000
29.90000 207.000
29.94500 196.000
29.99000 189.000
30.03500 221.000
30.08000 201.000
30.12500 207.000
30.17000 225.000
30.21500 217.000
30.26000 216.000
30.30500 227.000
30.35000 231.000
30.39500 223.000
30.44000 235.000
30.48500 214.000
30.53000 211.000
30.57500 208.000
30.62000 219.000
30.66500 208.000
30.71000 197.000
30.75500 197.000
30.80000 188.000
30.84500 175.000
30.89000 194.000
30.93500 192.000
30.98000 180.000
31.02500 189.000
31.07000 171.000
31.11500 178.000
31.16000 179.000
31.20500 173.000
31.25000 189.000
31.29500 172.000
31.34000 187.000
31.38500 184.000
31.43000 164.000
31.47500 164.000
31.52000 173.000
31.56500 178.000
31.61000 186.000
31.65500 160.000
31.70000 173.000
31.74500 163.000
31.79000 159.000
31.83500 180.000
31.88000 159.000
31.92500 157.000
31.97000 167.000
32.01500 162.000
32.06000 169.000
32.10500 177.000
32.15000 177.000
32.19500 173.000
32.24000 166.000
32.28500 179.000
32.33000 161.000
32.37500 159.000
32.42000 152.000
32.46500 141.000
32.51000 145.000
32.55500 140.000
32.60000 145.000
32.64500 163.000
32.69000 144.000
32.73500 169.000
32.78000 146.000
32.82500 140.000
32.87000 166.000
32.91500 146.000
32.96000 156.000
33.00500 138.000
33.05000 134.000
33.09500 151.000
33.14000 149.000
33.18500 174.000
33.23000 146.000
33.27500 129.000
33.32000 144.000
33.36500 160.000
33.41000 141.000
33.45500 131.000
33.50000 139.000
33.54500 146.000
33.59000 135.000
33.63500 139.000
33.68000 139.000
33.72500 140.000
33.77000 128.000
33.81500 148.000
33.86000 129.000
33.90500 143.000
33.95000 123.000
33.99500 149.000
34.04000 143.000
34.08500 131.000
34.13000 137.000
34.17500 122.000
34.22000 127.000
34.26500 131.000
34.31000 150.000
34.35500 119.000
34.40000 133.000
34.44500 143.000
34.49000 138.000
34.53500 135.000
34.58000 131.000
34.62500 138.000
34.67000 130.000
34.71500 135.000
34.76000 123.000
34.80500 141.000
34.85000 124.000
34.89500 118.000
34.94000 128.000
34.98500 143.000
35.03000 119.000
35.07500 127.000
35.12000 116.000
35.16500 131.000
35.21000 127.000
35.25500 116.000
35.30000 121.000
35.34500 124.000
35.39000 131.000
35.43500 109.000
35.48000 115.000
35.52500 114.000
35.57000 113.000
35.61500 123.000
35.66000 106.000
35.70500 111.000
35.75000 100.000
35.79500 129.000
35.84000 132.000
35.88500 113.000
35.93000 126.000
35.97500 121.000
36.02000 98.000
36.06500 102.000
36.11000 123.000
36.15500 111.000
36.20000 112.000
36.24500 105.000
36.29000 113.000
36.33500 124.000
36.38000 110.000
36.42500 110.000
36.47000 98.000
36.51500 96.000
36.56000 118.000
36.60500 106.000
36.65000 113.000
36.69500 112.000
36.74000 110.000
36.78500 94.000
36.83000 92.000
36.87500 108.000
36.92000 107.000
36.96500 106.000
37.01000 116.000
37.05500 117.000
37.10000 106.000
37.14500 113.000
37.19000 102.000
37.23500 119.000
37.28000 94.000
37.32500 120.000
37.37000 95.000
37.41500 124.000
37.46000 105.000
37.50500 99.000
37.55000 82.000
37.59500 116.000
37.64000 97.000
37.68500 107.000
37.73000 105.000
37.77500 99.000
37.82000 109.000
37.86500 99.000
37.91000 90.000
37.95500 101.000
38.00000 91.000
38.04500 93.000
38.09000 106.000
38.13500 88.000
38.18000 101.000
38.22500 111.000
38.27000 92.000
38.31500 100.000
38.36000 103.000
38.40500 88.000
38.45000 99.000
38.49500 84.000
38.54000 95.000
38.58500 102.000
38.63000 106.000
38.67500 98.000
38.72000 117.000
38.76500 106.000
38.81000 102.000
38.85500 96.000
38.90000 91.000
38.94500 88.000
38.99000 96.000
39.03500 104.000
39.08000 102.000
39.12500 102.000
39.17000 98.000
39.21500 91.000
39.26000 90.000
39.30500 93.000
39.35000 119.000
39.39500 98.000
39.44000 98.000
39.48500 118.000
39.53000 99.000
39.57500 108.000
39.62000 120.000
39.66500 101.000
39.71000 97.000
39.75500 106.000
39.80000 104.000
39.84500 89.000
39.89000 98.000
39.93500 95.000
39.98000 97.000
40.02500 94.000
40.07000 98.000
40.11500 98.000
40.16000 114.000
40.20500 111.000
40.25000 97.000
40.29500 111.000
40.34000 111.000
40.38500 103.000
40.43000 109.000
40.47500 108.000
40.52000 87.000
40.56500 99.000
40.61000 115.000
40.65500 92.000
40.70000 102.000
40.74500 109.000
40.79000 90.000
40.83500 87.000
40.88000 102.000
40.92500 86.000
40.97000 102.000
41.01500 115.000
41.06000 90.000
41.10500 103.000
41.15000 89.000
41.19500 120.000
41.24000 91.000
41.28500 103.000
41.33000 90.000
41.37500 93.000
41.42000 99.000
41.46500 110.000
41.51000 118.000
41.55500 99.000
41.60000 105.000
41.64500 103.000
41.69000 115.000
41.73500 110.000
41.78000 95.000
41.82500 91.000
41.87000 93.000
41.91500 98.000
41.96000 102.000
42.00500 100.000
42.05000 95.000
42.09500 102.000
42.14000 81.000
42.18500 92.000
42.23000 104.000
42.27500 95.000
42.32000 105.000
42.36500 97.000
42.41000 100.000
42.45500 99.000
42.50000 99.000
42.54500 103.000
42.59000 99.000
42.63500 106.000
42.68000 105.000
42.72500 91.000
42.77000 104.000
42.81500 87.000
42.86000 100.000
42.90500 91.000
42.95000 86.000
42.99500 85.000
43.04000 94.000
43.08500 92.000
43.13000 82.000
43.17500 94.000
43.22000 97.000
43.26500 93.000
43.31000 99.000
43.35500 95.000
43.40000 112.000
43.44500 109.000
43.49000 85.000
43.53500 88.000
43.58000 97.000
43.62500 102.000
43.67000 95.000
43.71500 112.000
43.76000 89.000
43.80500 84.000
43.85000 96.000
43.89500 88.000
43.94000 87.000
43.98500 85.000
44.03000 105.000
44.07500 95.000
44.12000 93.000
44.16500 101.000
44.21000 94.000
44.25500 89.000
44.30000 96.000
44.34500 91.000
44.39000 89.000
44.43500 91.000
44.48000 94.000
44.52500 94.000
44.57000 91.000
44.61500 89.000
44.66000 101.000
44.70500 87.000
44.75000 80.000
44.79500 87.000
44.84000 103.000
44.88500 87.000
44.93000 93.000
44.97500 86.000
45.02000 101.000
45.06500 94.000
45.11000 92.000
45.15500 102.000
45.20000 76.000
45.24500 79.000
45.29000 86.000
45.33500 100.000
45.38000 85.000
45.42500 108.000
45.47000 99.000
45.51500 86.000
45.56000 91.000
45.60500 87.000
45.65000 98.000
45.69500 99.000
45.74000 97.000
45.78500 93.000
45.83000 106.000
45.87500 80.000
45.92000 89.000
45.96500 94.000
46.01000 101.000
46.05500 76.000
46.10000 89.000
46.14500 87.000
46.19000 93.000
46.23500 90.000
46.28000 89.000
46.32500 94.000
46.37000 91.000
46.41500 94.000
46.46000 90.000
46.50500 72.000
46.55000 87.000
46.59500 91.000
46.64000 101.000
46.68500 92.000
46.73000 93.000
46.77500 84.000
46.82000 75.000
46.86500 75.000
46.91000 90.000
46.95500 78.000
47.00000 83.000
47.04500 79.000
47.09000 99.000
47.13500 84.000
47.18000 101.000
47.22500 88.000
47.27000 76.000
47.31500 100.000
47.36000 72.000
47.40500 87.000
47.45000 80.000
47.49500 81.000
47.54000 88.000
47.58500 88.000
47.63000 73.000
47.67500 75.000
47.72000 83.000
47.76500 74.000
47.81000 73.000
47.85500 92.000
47.90000 88.000
47.94500 94.000
47.99000 73.000
48.03500 81.000
48.08000 79.000
48.12500 91.000
48.17000 89.000
48.21500 82.000
48.26000 77.000
48.30500 91.000
48.35000 79.000
48.39500 97.000
48.44000 84.000
48.48500 72.000
48.53000 93.000
48.57500 85.000
48.62000 79.000
48.66500 83.000
48.71000 77.000
48.75500 75.000
48.80000 84.000
48.84500 84.000
48.89000 87.000
48.93500 78.000
48.98000 80.000
49.02500 94.000
49.07000 70.000
49.11500 76.000
49.16000 81.000
49.20500 92.000
49.25000 76.000
49.29500 90.000
49.34000 79.000
49.38500 81.000
49.43000 87.000
49.47500 90.000
49.52000 97.000
49.56500 83.000
49.61000 76.000
49.65500 82.000
49.70000 78.000
49.74500 79.000
49.79000 85.000
49.83500 84.000
49.88000 78.000
49.92500 76.000
49.97000 76.000
50.01500 81.000
50.06000 82.000
50.10500 79.000
50.15000 78.000
50.19500 82.000
50.24000 70.000
50.28500 67.000
50.33000 68.000
50.37500 83.000
50.42000 84.000
50.46500 67.000
50.51000 88.000
50.55500 75.000
50.60000 83.000
50.64500 78.000
50.69000 87.000
50.73500 79.000
50.78000 89.000
50.82500 78.000
50.87000 76.000
50.91500 65.000
50.96000 80.000
51.00500 74.000
51.05000 78.000
51.09500 86.000
51.14000 86.000
51.18500 72.000
51.23000 87.000
51.27500 84.000
51.32000 83.000
51.36500 78.000
51.41000 81.000
51.45500 87.000
51.50000 81.000
51.54500 76.000
51.59000 77.000
51.63500 75.000
51.68000 76.000
51.72500 84.000
51.77000 81.000
51.81500 89.000
51.86000 81.000
51.90500 77.000
51.95000 77.000
51.99500 77.000
52.04000 84.000
52.08500 84.000
52.13000 70.000
52.17500 84.000
52.22000 79.000
52.26500 60.000
52.31000 68.000
52.35500 74.000
52.40000 72.000
52.44500 69.000
52.49000 93.000
52.53500 88.000
52.58000 82.000
52.62500 77.000
52.67000 77.000
52.71500 77.000
52.76000 84.000
52.80500 68.000
52.85000 78.000
52.89500 71.000
52.94000 83.000
52.98500 78.000
53.03000 75.000
53.07500 76.000
53.12000 76.000
53.16500 81.000
53.21000 80.000
53.25500 74.000
53.30000 90.000
53.34500 67.000
53.39000 80.000
53.43500 75.000
53.48000 72.000
53.52500 71.000
53.57000 63.000
53.61500 81.000
53.66000 90.000
53.70500 74.000
53.75000 73.000
53.79500 83.000
53.84000 84.000
53.88500 73.000
53.93000 87.000
53.97500 84.000
54.02000 76.000
54.06500 62.000
54.11000 90.000
54.15500 77.000
54.20000 75.000
54.24500 79.000
54.29000 76.000
54.33500 83.000
54.38000 88.000
54.42500 83.000
54.47000 79.000
54.51500 81.000
54.56000 79.000
54.60500 74.000
54.65000 81.000
54.69500 76.000
54.74000 63.000
54.78500 77.000
54.83000 77.000
54.87500 83.000
54.92000 68.000
54.96500 82.000
55.01000 85.000
55.05500 63.000
55.10000 85.000
55.14500 83.000
55.19000 70.000
55.23500 79.000
55.28000 83.000
55.32500 77.000
55.37000 80.000
55.41500 73.000
55.46000 81.000
55.50500 65.000
55.55000 73.000
55.59500 75.000
55.64000 77.000
55.68500 82.000
55.73000 76.000
55.77500 64.000
55.82000 76.000
55.86500 74.000
55.91000 84.000
55.95500 69.000
56.00000 80.000
56.04500 73.000
56.09000 76.000
56.13500 78.000
56.18000 66.000
56.22500 73.000
56.27000 81.000
56.31500 72.000
56.36000 83.000
56.40500 91.000
56.45000 65.000
56.49500 60.000
56.54000 68.000
56.58500 76.000
56.63000 77.000
56.67500 78.000
56.72000 85.000
56.76500 73.000
56.81000 74.000
56.85500 59.000
56.90000 74.000
56.94500 61.000
56.99000 89.000
57.03500 73.000
57.08000 76.000
57.12500 84.000
57.17000 77.000
57.21500 69.000
57.26000 67.000
57.30500 75.000
57.35000 77.000
57.39500 68.000
57.44000 85.000
57.48500 79.000
57.53000 69.000
57.57500 72.000
57.62000 73.000
57.66500 78.000
57.71000 73.000
57.75500 78.000
57.80000 71.000
57.84500 64.000
57.89000 71.000
57.93500 77.000
57.98000 76.000
58.02500 72.000
58.07000 77.000
58.11500 69.000
58.16000 73.000
58.20500 84.000
58.25000 74.000
58.29500 81.000
58.34000 80.000
58.38500 84.000
58.43000 82.000
58.47500 72.000
58.52000 77.000
58.56500 66.000
58.61000 74.000
58.65500 70.000
58.70000 70.000
58.74500 86.000
58.79000 79.000
58.83500 64.000
58.88000 79.000
58.92500 77.000
58.97000 80.000
59.01500 62.000
59.06000 68.000
59.10500 62.000
59.15000 69.000
59.19500 80.000
59.24000 65.000
59.28500 72.000
59.33000 70.000
59.37500 71.000
59.42000 68.000
59.46500 82.000
59.51000 62.000
59.55500 79.000
59.60000 65.000
59.64500 67.000
59.69000 76.000
59.73500 65.000
59.78000 90.000
59.82500 82.000
59.87000 68.000
59.91500 63.000
59.96000 69.000
60.00500 76.000
60.05000 74.000
60.09500 76.000
60.14000 64.000
60.18500 69.000
60.23000 82.000
60.27500 60.000
60.32000 65.000
60.36500 65.000
60.41000 77.000
60.45500 64.000
60.50000 72.000
60.54500 74.000
60.59000 76.000
60.63500 65.000
60.68000 75.000
60.72500 67.000
60.77000 68.000
60.81500 59.000
60.86000 68.000
60.90500 75.000
60.95000 69.000
60.99500 60.000
61.04000 76.000
61.08500 85.000
61.13000 67.000
61.17500 82.000
61.22000 66.000
61.26500 74.000
61.31000 68.000
61.35500 68.000
61.40000 77.000
61.44500 65.000
61.49000 66.000
61.53500 68.000
61.58000 72.000
61.62500 76.000
61.67000 67.000
61.71500 62.000
61.76000 68.000
61.80500 66.000
61.85000 83.000
61.89500 70.000
61.94000 69.000
61.98500 69.000