File: ISoD/xrd_data/HSC026_Soxhlet.xy
2.00000 2.000
2.04500 2.000
2.09000 2.000
2.13500 2.000
2.18000 0.000
2.22500 2.000
2.27000 3.000
2.31500 2.000
2.36000 3.000
2.40500 2.000
2.45000 3.000
2.49500 4.000
2.54000 2.000
2.58500 1.000
2.63000 2.000
2.67500 1.000
2.72000 1.000
2.76500 2.000
2.81000 4.000
2.85500 1.000
2.90000 3.000
2.94500 2.000
2.99000 2.000
3.03500 2.000
3.08000 4.000
3.12500 7.000
3.17000 12.000
3.21500 15.000
3.26000 55.000
3.30500 114.000
3.35000 164.000
3.39500 198.000
3.44000 228.000
3.48500 191.000
3.53000 161.000
3.57500 183.000
3.62000 194.000
3.66500 197.000
3.71000 194.000
3.75500 179.000
3.80000 176.000
3.84500 190.000
3.89000 167.000
3.93500 164.000
3.98000 161.000
4.02500 174.000
4.07000 184.000
4.11500 170.000
4.16000 158.000
4.20500 162.000
4.25000 151.000
4.29500 177.000
4.34000 147.000
4.38500 155.000
4.43000 171.000
4.47500 156.000
4.52000 179.000
4.56500 167.000
4.61000 155.000
4.65500 180.000
4.70000 180.000
4.74500 173.000
4.79000 170.000
4.83500 178.000
4.88000 170.000
4.92500 147.000
4.97000 168.000
5.01500 155.000
5.06000 164.000
5.10500 156.000
5.15000 153.000
5.19500 147.000
5.24000 175.000
5.28500 161.000
5.33000 150.000
5.37500 177.000
5.42000 174.000
5.46500 167.000
5.51000 150.000
5.55500 158.000
5.60000 180.000
5.64500 159.000
5.69000 172.000
5.73500 173.000
5.78000 166.000
5.82500 166.000
5.87000 180.000
5.91500 179.000
5.96000 164.000
6.00500 162.000
6.05000 165.000
6.09500 179.000
6.14000 153.000
6.18500 180.000
6.23000 188.000
6.27500 155.000
6.32000 186.000
6.36500 162.000
6.41000 157.000
6.45500 177.000
6.50000 162.000
6.54500 170.000
6.59000 190.000
6.63500 174.000
6.68000 172.000
6.72500 186.000
6.77000 180.000
6.81500 174.000
6.86000 173.000
6.90500 169.000
6.95000 177.000
6.99500 189.000
7.04000 182.000
7.08500 195.000
7.13000 171.000
7.17500 177.000
7.22000 201.000
7.26500 190.000
7.31000 188.000
7.35500 172.000
7.40000 177.000
7.44500 173.000
7.49000 181.000
7.53500 177.000
7.58000 202.000
7.62500 192.000
7.67000 208.000
7.71500 192.000
7.76000 184.000
7.80500 209.000
7.85000 195.000
7.89500 195.000
7.94000 177.000
7.98500 187.000
8.03000 193.000
8.07500 192.000
8.12000 215.000
8.16500 194.000
8.21000 210.000
8.25500 224.000
8.30000 226.000
8.34500 230.000
8.39000 261.000
8.43500 258.000
8.48000 279.000
8.52500 305.000
8.57000 283.000
8.61500 278.000
8.66000 294.000
8.70500 265.000
8.75000 248.000
8.79500 251.000
8.84000 226.000
8.88500 244.000
8.93000 225.000
8.97500 221.000
9.02000 205.000
9.06500 187.000
9.11000 218.000
9.15500 208.000
9.20000 208.000
9.24500 207.000
9.29000 199.000
9.33500 203.000
9.38000 198.000
9.42500 202.000
9.47000 205.000
9.51500 208.000
9.56000 200.000
9.60500 197.000
9.65000 204.000
9.69500 208.000
9.74000 211.000
9.78500 218.000
9.83000 211.000
9.87500 217.000
9.92000 220.000
9.96500 214.000
10.01000 228.000
10.05500 226.000
10.10000 233.000
10.14500 230.000
10.19000 227.000
10.23500 216.000
10.28000 198.000
10.32500 206.000
10.37000 217.000
10.41500 199.000
10.46000 203.000
10.50500 202.000
10.55000 207.000
10.59500 208.000
10.64000 228.000
10.68500 237.000
10.73000 232.000
10.77500 246.000
10.82000 241.000
10.86500 232.000
10.91000 222.000
10.95500 251.000
11.00000 257.000
11.04500 283.000
11.09000 270.000
11.13500 307.000
11.18000 345.000
11.22500 363.000
11.27000 401.000
11.31500 495.000
11.36000 498.000
11.40500 606.000
11.45000 710.000
11.49500 783.000
11.54000 843.000
11.58500 856.000
11.63000 749.000
11.67500 758.000
11.72000 594.000
11.76500 589.000
11.81000 548.000
11.85500 515.000
11.90000 498.000
11.94500 434.000
11.99000 405.000
12.03500 350.000
12.08000 269.000
12.12500 265.000
12.17000 241.000
12.21500 239.000
12.26000 232.000
12.30500 242.000
12.35000 208.000
12.39500 204.000
12.44000 200.000
12.48500 230.000
12.53000 222.000
12.57500 223.000
12.62000 225.000
12.66500 252.000
12.71000 256.000
12.75500 250.000
12.80000 298.000
12.84500 309.000
12.89000 303.000
12.93500 267.000
12.98000 259.000
13.02500 294.000
13.07000 296.000
13.11500 278.000
13.16000 254.000
13.20500 288.000
13.25000 252.000
13.29500 253.000
13.34000 239.000
13.38500 248.000
13.43000 205.000
13.47500 222.000
13.52000 216.000
13.56500 207.000
13.61000 218.000
13.65500 235.000
13.70000 206.000
13.74500 227.000
13.79000 206.000
13.83500 185.000
13.88000 207.000
13.92500 193.000
13.97000 204.000
14.01500 193.000
14.06000 184.000
14.10500 204.000
14.15000 194.000
14.19500 209.000
14.24000 198.000
14.28500 220.000
14.33000 196.000
14.37500 193.000
14.42000 200.000
14.46500 215.000
14.51000 216.000
14.55500 179.000
14.60000 183.000
14.64500 194.000
14.69000 187.000
14.73500 198.000
14.78000 202.000
14.82500 201.000
14.87000 173.000
14.91500 185.000
14.96000 196.000
15.00500 187.000
15.05000 195.000
15.09500 180.000
15.14000 187.000
15.18500 201.000
15.23000 190.000
15.27500 189.000
15.32000 195.000
15.36500 183.000
15.41000 193.000
15.45500 186.000
15.50000 184.000
15.54500 199.000
15.59000 164.000
15.63500 198.000
15.68000 179.000
15.72500 181.000
15.77000 186.000
15.81500 211.000
15.86000 198.000
15.90500 199.000
15.95000 187.000
15.99500 188.000
16.04000 199.000
16.08500 198.000
16.13000 165.000
16.17500 227.000
16.22000 226.000
16.26500 175.000
16.31000 182.000
16.35500 203.000
16.40000 189.000
16.44500 208.000
16.49000 178.000
16.53500 192.000
16.58000 201.000
16.62500 190.000
16.67000 203.000
16.71500 189.000
16.76000 211.000
16.80500 178.000
16.85000 207.000
16.89500 170.000
16.94000 206.000
16.98500 190.000
17.03000 178.000
17.07500 180.000
17.12000 184.000
17.16500 196.000
17.21000 193.000
17.25500 197.000
17.30000 214.000
17.34500 188.000
17.39000 201.000
17.43500 186.000
17.48000 194.000
17.52500 209.000
17.57000 183.000
17.61500 187.000
17.66000 203.000
17.70500 189.000
17.75000 188.000
17.79500 189.000
17.84000 206.000
17.88500 197.000
17.93000 198.000
17.97500 191.000
18.02000 185.000
18.06500 203.000
18.11000 189.000
18.15500 195.000
18.20000 189.000
18.24500 202.000
18.29000 202.000
18.33500 194.000
18.38000 226.000
18.42500 215.000
18.47000 202.000
18.51500 227.000
18.56000 219.000
18.60500 196.000
18.65000 227.000
18.69500 229.000
18.74000 196.000
18.78500 208.000
18.83000 204.000
18.87500 208.000
18.92000 209.000
18.96500 195.000
19.01000 193.000
19.05500 207.000
19.10000 197.000
19.14500 205.000
19.19000 207.000
19.23500 209.000
19.28000 204.000
19.32500 213.000
19.37000 192.000
19.41500 229.000
19.46000 227.000
19.50500 207.000
19.55000 202.000
19.59500 222.000
19.64000 208.000
19.68500 223.000
19.73000 218.000
19.77500 238.000
19.82000 222.000
19.86500 205.000
19.91000 200.000
19.95500 227.000
20.00000 200.000
20.04500 210.000
20.09000 229.000
20.13500 222.000
20.18000 217.000
20.22500 215.000
20.27000 209.000
20.31500 227.000
20.36000 223.000
20.40500 211.000
20.45000 217.000
20.49500 216.000
20.54000 221.000
20.58500 219.000
20.63000 186.000
20.67500 201.000
20.72000 224.000
20.76500 223.000
20.81000 201.000
20.85500 187.000
20.90000 200.000
20.94500 194.000
20.99000 217.000
21.03500 221.000
21.08000 215.000
21.12500 216.000
21.17000 212.000
21.21500 218.000
21.26000 206.000
21.30500 181.000
21.35000 214.000
21.39500 194.000
21.44000 194.000
21.48500 202.000
21.53000 198.000
21.57500 203.000
21.62000 206.000
21.66500 220.000
21.71000 224.000
21.75500 207.000
21.80000 212.000
21.84500 196.000
21.89000 219.000
21.93500 212.000
21.98000 188.000
22.02500 209.000
22.07000 218.000
22.11500 199.000
22.16000 234.000
22.20500 235.000
22.25000 218.000
22.29500 217.000
22.34000 210.000
22.38500 191.000
22.43000 195.000
22.47500 213.000
22.52000 196.000
22.56500 217.000
22.61000 237.000
22.65500 203.000
22.70000 197.000
22.74500 213.000
22.79000 230.000
22.83500 243.000
22.88000 226.000
22.92500 229.000
22.97000 249.000
23.01500 237.000
23.06000 224.000
23.10500 241.000
23.15000 239.000
23.19500 255.000
23.24000 272.000
23.28500 219.000
23.33000 239.000
23.37500 246.000
23.42000 234.000
23.46500 250.000
23.51000 253.000
23.55500 238.000
23.60000 247.000
23.64500 230.000
23.69000 260.000
23.73500 246.000
23.78000 247.000
23.82500 243.000
23.87000 238.000
23.91500 241.000
23.96000 255.000
24.00500 255.000
24.05000 259.000
24.09500 273.000
24.14000 220.000
24.18500 254.000
24.23000 242.000
24.27500 243.000
24.32000 266.000
24.36500 235.000
24.41000 244.000
24.45500 270.000
24.50000 278.000
24.54500 281.000
24.59000 278.000
24.63500 291.000
24.68000 262.000
24.72500 297.000
24.77000 294.000
24.81500 324.000
24.86000 322.000
24.90500 319.000
24.95000 356.000
24.99500 414.000
25.04000 387.000
25.08500 428.000
25.13000 394.000
25.17500 422.000
25.22000 417.000
25.26500 445.000
25.31000 484.000
25.35500 510.000
25.40000 598.000
25.44500 620.000
25.49000 695.000
25.53500 736.000
25.58000 722.000
25.62500 718.000
25.67000 633.000
25.71500 577.000
25.76000 521.000
25.80500 479.000
25.85000 452.000
25.89500 434.000
25.94000 443.000
25.98500 397.000
26.03000 378.000
26.07500 372.000
26.12000 347.000
26.16500 377.000
26.21000 343.000
26.25500 351.000
26.30000 347.000
26.34500 380.000
26.39000 355.000
26.43500 359.000
26.48000 367.000
26.52500 399.000
26.57000 378.000
26.61500 371.000
26.66000 366.000
26.70500 353.000
26.75000 385.000
26.79500 391.000
26.84000 432.000
26.88500 444.000
26.93000 437.000
26.97500 469.000
27.02000 522.000
27.06500 544.000
27.11000 652.000
27.15500 651.000
27.20000 630.000
27.24500 681.000
27.29000 673.000
27.33500 704.000
27.38000 729.000
27.42500 763.000
27.47000 805.000
27.51500 775.000
27.56000 747.000
27.60500 660.000
27.65000 638.000
27.69500 494.000
27.74000 438.000
27.78500 375.000
27.83000 335.000
27.87500 327.000
27.92000 300.000
27.96500 323.000
28.01000 269.000
28.05500 281.000
28.10000 253.000
28.14500 290.000
28.19000 286.000
28.23500 266.000
28.28000 249.000
28.32500 242.000
28.37000 238.000
28.41500 218.000
28.46000 227.000
28.50500 218.000
28.55000 196.000
28.59500 218.000
28.64000 242.000
28.68500 222.000
28.73000 210.000
28.77500 212.000
28.82000 210.000
28.86500 195.000
28.91000 206.000
28.95500 196.000
29.00000 197.000
29.04500 214.000
29.09000 198.000
29.13500 215.000
29.18000 197.000
29.22500 224.000
29.27000 189.000
29.31500 200.000
29.36000 209.000
29.40500 206.000
29.45000 203.000
29.49500 190.000
29.54000 226.000
29.58500 221.000
29.63000 194.000
29.67500 217.000
29.72000 182.000
29.76500 206.000
29.81000 224.000
29.85500 234.000
29.90000 199.000
29.94500 193.000
29.99000 197.000
30.03500 219.000
30.08000 230.000
30.12500 217.000
30.17000 236.000
30.21500 260.000
30.26000 254.000
30.30500 279.000
30.35000 260.000
30.39500 279.000
30.44000 281.000
30.48500 273.000
30.53000 236.000
30.57500 246.000
30.62000 231.000
30.66500 231.000
30.71000 206.000
30.75500 206.000
30.80000 197.000
30.84500 180.000
30.89000 195.000
30.93500 193.000
30.98000 195.000
31.02500 182.000
31.07000 199.000
31.11500 184.000
31.16000 185.000
31.20500 172.000
31.25000 191.000
31.29500 193.000
31.34000 180.000
31.38500 153.000
31.43000 194.000
31.47500 177.000
31.52000 148.000
31.56500 152.000
31.61000 162.000
31.65500 168.000
31.70000 161.000
31.74500 160.000
31.79000 173.000
31.83500 151.000
31.88000 163.000
31.92500 142.000
31.97000 154.000
32.01500 173.000
32.06000 161.000
32.10500 161.000
32.15000 160.000
32.19500 167.000
32.24000 171.000
32.28500 143.000
32.33000 146.000
32.37500 154.000
32.42000 171.000
32.46500 163.000
32.51000 151.000
32.55500 178.000
32.60000 161.000
32.64500 141.000
32.69000 165.000
32.73500 166.000
32.78000 138.000
32.82500 151.000
32.87000 154.000
32.91500 166.000
32.96000 146.000
33.00500 145.000
33.05000 161.000
33.09500 141.000
33.14000 141.000
33.18500 144.000
33.23000 161.000
33.27500 153.000
33.32000 139.000
33.36500 148.000
33.41000 163.000
33.45500 146.000
33.50000 148.000
33.54500 142.000
33.59000 132.000
33.63500 142.000
33.68000 141.000
33.72500 142.000
33.77000 138.000
33.81500 124.000
33.86000 142.000
33.90500 137.000
33.95000 135.000
33.99500 143.000
34.04000 123.000
34.08500 131.000
34.13000 132.000
34.17500 128.000
34.22000 138.000
34.26500 143.000
34.31000 135.000
34.35500 147.000
34.40000 125.000
34.44500 145.000
34.49000 132.000
34.53500 145.000
34.58000 152.000
34.62500 119.000
34.67000 154.000
34.71500 151.000
34.76000 148.000
34.80500 118.000
34.85000 139.000
34.89500 133.000
34.94000 143.000
34.98500 130.000
35.03000 120.000
35.07500 139.000
35.12000 117.000
35.16500 158.000
35.21000 124.000
35.25500 126.000
35.30000 142.000
35.34500 140.000
35.39000 118.000
35.43500 123.000
35.48000 136.000
35.52500 143.000
35.57000 119.000
35.61500 132.000
35.66000 117.000
35.70500 119.000
35.75000 115.000
35.79500 127.000
35.84000 130.000
35.88500 123.000
35.93000 133.000
35.97500 112.000
36.02000 122.000
36.06500 119.000
36.11000 106.000
36.15500 105.000
36.20000 117.000
36.24500 118.000
36.29000 117.000
36.33500 121.000
36.38000 133.000
36.42500 110.000
36.47000 121.000
36.51500 98.000
36.56000 107.000
36.60500 116.000
36.65000 99.000
36.69500 99.000
36.74000 114.000
36.78500 105.000
36.83000 100.000
36.87500 108.000
36.92000 103.000
36.96500 107.000
37.01000 90.000
37.05500 118.000
37.10000 102.000
37.14500 108.000
37.19000 104.000
37.23500 114.000
37.28000 112.000
37.32500 108.000
37.37000 102.000
37.41500 119.000
37.46000 99.000
37.50500 102.000
37.55000 92.000
37.59500 118.000
37.64000 118.000
37.68500 101.000
37.73000 105.000
37.77500 104.000
37.82000 126.000
37.86500 106.000
37.91000 108.000
37.95500 126.000
38.00000 99.000
38.04500 101.000
38.09000 99.000
38.13500 113.000
38.18000 100.000
38.22500 105.000
38.27000 96.000
38.31500 110.000
38.36000 120.000
38.40500 107.000
38.45000 107.000
38.49500 116.000
38.54000 96.000
38.58500 120.000
38.63000 119.000
38.67500 118.000
38.72000 102.000
38.76500 110.000
38.81000 127.000
38.85500 107.000
38.90000 109.000
38.94500 111.000
38.99000 97.000
39.03500 112.000
39.08000 105.000
39.12500 110.000
39.17000 100.000
39.21500 105.000
39.26000 116.000
39.30500 114.000
39.35000 107.000
39.39500 93.000
39.44000 125.000
39.48500 115.000
39.53000 111.000
39.57500 105.000
39.62000 122.000
39.66500 119.000
39.71000 116.000
39.75500 93.000
39.80000 106.000
39.84500 108.000
39.89000 102.000
39.93500 122.000
39.98000 114.000
40.02500 130.000
40.07000 129.000
40.11500 126.000
40.16000 131.000
40.20500 136.000
40.25000 134.000
40.29500 122.000
40.34000 124.000
40.38500 123.000
40.43000 123.000
40.47500 131.000
40.52000 119.000
40.56500 127.000
40.61000 113.000
40.65500 121.000
40.70000 134.000
40.74500 110.000
40.79000 131.000
40.83500 119.000
40.88000 120.000
40.92500 123.000
40.97000 118.000
41.01500 126.000
41.06000 113.000
41.10500 131.000
41.15000 117.000
41.19500 104.000
41.24000 108.000
41.28500 108.000
41.33000 122.000
41.37500 102.000
41.42000 108.000
41.46500 114.000
41.51000 114.000
41.55500 112.000
41.60000 110.000
41.64500 104.000
41.69000 93.000
41.73500 129.000
41.78000 118.000
41.82500 109.000
41.87000 107.000
41.91500 90.000
41.96000 111.000
42.00500 92.000
42.05000 110.000
42.09500 101.000
42.14000 97.000
42.18500 102.000
42.23000 114.000
42.27500 92.000
42.32000 109.000
42.36500 92.000
42.41000 121.000
42.45500 101.000
42.50000 91.000
42.54500 104.000
42.59000 107.000
42.63500 114.000
42.68000 110.000
42.72500 112.000
42.77000 111.000
42.81500 91.000
42.86000 104.000
42.90500 103.000
42.95000 92.000
42.99500 112.000
43.04000 97.000
43.08500 109.000
43.13000 94.000
43.17500 106.000
43.22000 109.000
43.26500 96.000
43.31000 100.000
43.35500 99.000
43.40000 107.000
43.44500 98.000
43.49000 95.000
43.53500 109.000
43.58000 105.000
43.62500 110.000
43.67000 94.000
43.71500 113.000
43.76000 94.000
43.80500 108.000
43.85000 98.000
43.89500 119.000
43.94000 91.000
43.98500 88.000
44.03000 98.000
44.07500 107.000
44.12000 94.000
44.16500 87.000
44.21000 104.000
44.25500 99.000
44.30000 113.000
44.34500 96.000
44.39000 101.000
44.43500 103.000
44.48000 87.000
44.52500 103.000
44.57000 90.000
44.61500 96.000
44.66000 97.000
44.70500 75.000
44.75000 115.000
44.79500 108.000
44.84000 83.000
44.88500 89.000
44.93000 108.000
44.97500 112.000
45.02000 86.000
45.06500 94.000
45.11000 116.000
45.15500 109.000
45.20000 108.000
45.24500 96.000
45.29000 82.000
45.33500 96.000
45.38000 91.000
45.42500 90.000
45.47000 100.000
45.51500 116.000
45.56000 96.000
45.60500 123.000
45.65000 97.000
45.69500 107.000
45.74000 91.000
45.78500 112.000
45.83000 110.000
45.87500 119.000
45.92000 96.000
45.96500 106.000
46.01000 93.000
46.05500 96.000
46.10000 100.000
46.14500 83.000
46.19000 105.000
46.23500 96.000
46.28000 97.000
46.32500 111.000
46.37000 106.000
46.41500 82.000
46.46000 119.000
46.50500 113.000
46.55000 79.000
46.59500 96.000
46.64000 105.000
46.68500 83.000
46.73000 84.000
46.77500 84.000
46.82000 86.000
46.86500 88.000
46.91000 90.000
46.95500 105.000
47.00000 83.000
47.04500 115.000
47.09000 100.000
47.13500 91.000
47.18000 98.000
47.22500 107.000
47.27000 80.000
47.31500 89.000
47.36000 85.000
47.40500 76.000
47.45000 83.000
47.49500 80.000
47.54000 75.000
47.58500 104.000
47.63000 88.000
47.67500 80.000
47.72000 83.000
47.76500 90.000
47.81000 96.000
47.85500 88.000
47.90000 90.000
47.94500 88.000
47.99000 86.000
48.03500 100.000
48.08000 94.000
48.12500 97.000
48.17000 78.000
48.21500 78.000
48.26000 84.000
48.30500 78.000
48.35000 100.000
48.39500 67.000
48.44000 115.000
48.48500 89.000
48.53000 86.000
48.57500 101.000
48.62000 89.000
48.66500 84.000
48.71000 92.000
48.75500 98.000
48.80000 82.000
48.84500 97.000
48.89000 86.000
48.93500 85.000
48.98000 92.000
49.02500 72.000
49.07000 75.000
49.11500 82.000
49.16000 83.000
49.20500 91.000
49.25000 82.000
49.29500 85.000
49.34000 99.000
49.38500 84.000
49.43000 104.000
49.47500 84.000
49.52000 88.000
49.56500 90.000
49.61000 79.000
49.65500 77.000
49.70000 79.000
49.74500 86.000
49.79000 80.000
49.83500 83.000
49.88000 65.000
49.92500 103.000
49.97000 92.000
50.01500 81.000
50.06000 83.000
50.10500 81.000
50.15000 87.000
50.19500 82.000
50.24000 69.000
50.28500 69.000
50.33000 91.000
50.37500 82.000
50.42000 81.000
50.46500 85.000
50.51000 93.000
50.55500 83.000
50.60000 86.000
50.64500 89.000
50.69000 89.000
50.73500 78.000
50.78000 78.000
50.82500 81.000
50.87000 76.000
50.91500 81.000
50.96000 82.000
51.00500 81.000
51.05000 84.000
51.09500 81.000
51.14000 83.000
51.18500 74.000
51.23000 92.000
51.27500 83.000
51.32000 91.000
51.36500 71.000
51.41000 82.000
51.45500 93.000
51.50000 78.000
51.54500 77.000
51.59000 84.000
51.63500 79.000
51.68000 85.000
51.72500 85.000
51.77000 83.000
51.81500 80.000
51.86000 87.000
51.90500 90.000
51.95000 75.000
51.99500 79.000
52.04000 89.000
52.08500 95.000
52.13000 77.000
52.17500 84.000
52.22000 77.000
52.26500 81.000
52.31000 88.000
52.35500 88.000
52.40000 83.000
52.44500 84.000
52.49000 97.000
52.53500 86.000
52.58000 96.000
52.62500 97.000
52.67000 94.000
52.71500 109.000
52.76000 77.000
52.80500 89.000
52.85000 82.000
52.89500 99.000
52.94000 74.000
52.98500 85.000
53.03000 97.000
53.07500 92.000
53.12000 83.000
53.16500 94.000
53.21000 85.000
53.25500 86.000
53.30000 79.000
53.34500 83.000
53.39000 91.000
53.43500 99.000
53.48000 82.000
53.52500 83.000
53.57000 89.000
53.61500 78.000
53.66000 96.000
53.70500 88.000
53.75000 96.000
53.79500 90.000
53.84000 90.000
53.88500 68.000
53.93000 91.000
53.97500 78.000
54.02000 83.000
54.06500 87.000
54.11000 89.000
54.15500 91.000
54.20000 85.000
54.24500 81.000
54.29000 81.000
54.33500 86.000
54.38000 82.000
54.42500 95.000
54.47000 81.000
54.51500 92.000
54.56000 80.000
54.60500 85.000
54.65000 83.000
54.69500 100.000
54.74000 91.000
54.78500 75.000
54.83000 78.000
54.87500 85.000
54.92000 82.000
54.96500 84.000
55.01000 90.000
55.05500 97.000
55.10000 80.000
55.14500 85.000
55.19000 69.000
55.23500 86.000
55.28000 79.000
55.32500 65.000
55.37000 75.000
55.41500 80.000
55.46000 77.000
55.50500 84.000
55.55000 77.000
55.59500 72.000
55.64000 62.000
55.68500 80.000
55.73000 76.000
55.77500 91.000
55.82000 84.000
55.86500 71.000
55.91000 81.000
55.95500 86.000
56.00000 77.000
56.04500 69.000
56.09000 69.000
56.13500 77.000
56.18000 90.000
56.22500 74.000
56.27000 76.000
56.31500 68.000
56.36000 70.000
56.40500 83.000
56.45000 75.000
56.49500 76.000
56.54000 65.000
56.58500 85.000
56.63000 87.000
56.67500 89.000
56.72000 89.000
56.76500 79.000
56.81000 86.000
56.85500 77.000
56.90000 72.000
56.94500 75.000
56.99000 72.000
57.03500 70.000
57.08000 76.000
57.12500 77.000
57.17000 66.000
57.21500 63.000
57.26000 84.000
57.30500 83.000
57.35000 79.000
57.39500 74.000
57.44000 81.000
57.48500 70.000
57.53000 67.000
57.57500 71.000
57.62000 72.000
57.66500 70.000
57.71000 79.000
57.75500 69.000
57.80000 80.000
57.84500 73.000
57.89000 74.000
57.93500 63.000
57.98000 71.000
58.02500 69.000
58.07000 68.000
58.11500 68.000
58.16000 71.000
58.20500 78.000
58.25000 83.000
58.29500 67.000
58.34000 99.000
58.38500 80.000
58.43000 75.000
58.47500 68.000
58.52000 75.000
58.56500 80.000
58.61000 76.000
58.65500 80.000
58.70000 73.000
58.74500 67.000
58.79000 70.000
58.83500 72.000
58.88000 86.000
58.92500 71.000
58.97000 68.000
59.01500 74.000
59.06000 81.000
59.10500 75.000
59.15000 61.000
59.19500 66.000
59.24000 77.000
59.28500 81.000
59.33000 71.000
59.37500 67.000
59.42000 78.000
59.46500 78.000
59.51000 66.000
59.55500 63.000
59.60000 71.000
59.64500 81.000
59.69000 78.000
59.73500 76.000
59.78000 77.000
59.82500 81.000
59.87000 77.000
59.91500 74.000
59.96000 87.000
60.00500 72.000
60.05000 65.000
60.09500 66.000
60.14000 64.000
60.18500 79.000
60.23000 64.000
60.27500 70.000
60.32000 66.000
60.36500 59.000
60.41000 71.000
60.45500 69.000
60.50000 68.000
60.54500 59.000
60.59000 70.000
60.63500 68.000
60.68000 71.000
60.72500 65.000
60.77000 64.000
60.81500 64.000
60.86000 76.000
60.90500 73.000
60.95000 56.000
60.99500 73.000
61.04000 70.000
61.08500 67.000
61.13000 79.000
61.17500 71.000
61.22000 72.000
61.26500 64.000
61.31000 68.000
61.35500 58.000
61.40000 69.000
61.44500 74.000
61.49000 62.000
61.53500 67.000
61.58000 64.000
61.62500 61.000
61.67000 57.000
61.71500 59.000
61.76000 70.000
61.80500 53.000
61.85000 77.000
61.89500 68.000
61.94000 65.000
61.98500 76.000