File: ISoD/xrd_data/HSC090.xy
2.00000 2.000
2.04500 1.000
2.09000 1.000
2.13500 2.000
2.18000 1.000
2.22500 0.000
2.27000 1.000
2.31500 1.000
2.36000 1.000
2.40500 0.000
2.45000 0.000
2.49500 5.000
2.54000 3.000
2.58500 4.000
2.63000 0.000
2.67500 1.000
2.72000 2.000
2.76500 0.000
2.81000 0.000
2.85500 1.000
2.90000 1.000
2.94500 2.000
2.99000 2.000
3.03500 4.000
3.08000 0.000
3.12500 3.000
3.17000 21.000
3.21500 25.000
3.26000 28.000
3.30500 38.000
3.35000 38.000
3.39500 39.000
3.44000 41.000
3.48500 52.000
3.53000 48.000
3.57500 46.000
3.62000 54.000
3.66500 41.000
3.71000 40.000
3.75500 46.000
3.80000 57.000
3.84500 49.000
3.89000 48.000
3.93500 56.000
3.98000 55.000
4.02500 54.000
4.07000 57.000
4.11500 47.000
4.16000 61.000
4.20500 47.000
4.25000 58.000
4.29500 67.000
4.34000 51.000
4.38500 46.000
4.43000 64.000
4.47500 53.000
4.52000 53.000
4.56500 69.000
4.61000 68.000
4.65500 64.000
4.70000 70.000
4.74500 57.000
4.79000 57.000
4.83500 53.000
4.88000 57.000
4.92500 58.000
4.97000 59.000
5.01500 54.000
5.06000 61.000
5.10500 77.000
5.15000 50.000
5.19500 64.000
5.24000 55.000
5.28500 52.000
5.33000 65.000
5.37500 63.000
5.42000 69.000
5.46500 64.000
5.51000 86.000
5.55500 61.000
5.60000 73.000
5.64500 59.000
5.69000 63.000
5.73500 72.000
5.78000 66.000
5.82500 62.000
5.87000 83.000
5.91500 84.000
5.96000 86.000
6.00500 68.000
6.05000 85.000
6.09500 85.000
6.14000 92.000
6.18500 145.000
6.23000 184.000
6.27500 95.000
6.32000 89.000
6.36500 71.000
6.41000 75.000
6.45500 82.000
6.50000 80.000
6.54500 85.000
6.59000 71.000
6.63500 66.000
6.68000 71.000
6.72500 77.000
6.77000 83.000
6.81500 62.000
6.86000 72.000
6.90500 72.000
6.95000 81.000
6.99500 80.000
7.04000 89.000
7.08500 85.000
7.13000 78.000
7.17500 72.000
7.22000 69.000
7.26500 78.000
7.31000 74.000
7.35500 67.000
7.40000 80.000
7.44500 72.000
7.49000 74.000
7.53500 86.000
7.58000 67.000
7.62500 71.000
7.67000 77.000
7.71500 88.000
7.76000 82.000
7.80500 81.000
7.85000 76.000
7.89500 74.000
7.94000 80.000
7.98500 82.000
8.03000 71.000
8.07500 73.000
8.12000 70.000
8.16500 76.000
8.21000 90.000
8.25500 90.000
8.30000 78.000
8.34500 76.000
8.39000 84.000
8.43500 85.000
8.48000 78.000
8.52500 86.000
8.57000 96.000
8.61500 85.000
8.66000 73.000
8.70500 69.000
8.75000 99.000
8.79500 73.000
8.84000 95.000
8.88500 90.000
8.93000 107.000
8.97500 84.000
9.02000 90.000
9.06500 88.000
9.11000 84.000
9.15500 84.000
9.20000 71.000
9.24500 82.000
9.29000 95.000
9.33500 89.000
9.38000 83.000
9.42500 100.000
9.47000 105.000
9.51500 115.000
9.56000 93.000
9.60500 94.000
9.65000 92.000
9.69500 105.000
9.74000 90.000
9.78500 104.000
9.83000 106.000
9.87500 103.000
9.92000 103.000
9.96500 84.000
10.01000 74.000
10.05500 89.000
10.10000 90.000
10.14500 84.000
10.19000 112.000
10.23500 104.000
10.28000 108.000
10.32500 125.000
10.37000 145.000
10.41500 202.000
10.46000 321.000
10.50500 114.000
10.55000 90.000
10.59500 90.000
10.64000 87.000
10.68500 88.000
10.73000 89.000
10.77500 92.000
10.82000 98.000
10.86500 92.000
10.91000 89.000
10.95500 96.000
11.00000 103.000
11.04500 88.000
11.09000 84.000
11.13500 96.000
11.18000 108.000
11.22500 88.000
11.27000 106.000
11.31500 126.000
11.36000 178.000
11.40500 226.000
11.45000 391.000
11.49500 308.000
11.54000 123.000
11.58500 98.000
11.63000 74.000
11.67500 84.000
11.72000 96.000
11.76500 91.000
11.81000 88.000
11.85500 89.000
11.90000 97.000
11.94500 93.000
11.99000 91.000
12.03500 92.000
12.08000 86.000
12.12500 91.000
12.17000 77.000
12.21500 92.000
12.26000 96.000
12.30500 86.000
12.35000 97.000
12.39500 110.000
12.44000 102.000
12.48500 115.000
12.53000 127.000
12.57500 145.000
12.62000 111.000
12.66500 77.000
12.71000 98.000
12.75500 99.000
12.80000 92.000
12.84500 103.000
12.89000 82.000
12.93500 97.000
12.98000 82.000
13.02500 80.000
13.07000 78.000
13.11500 93.000
13.16000 91.000
13.20500 98.000
13.25000 75.000
13.29500 79.000
13.34000 98.000
13.38500 81.000
13.43000 95.000
13.47500 93.000
13.52000 86.000
13.56500 98.000
13.61000 112.000
13.65500 95.000
13.70000 78.000
13.74500 95.000
13.79000 92.000
13.83500 83.000
13.88000 91.000
13.92500 92.000
13.97000 83.000
14.01500 90.000
14.06000 96.000
14.10500 87.000
14.15000 94.000
14.19500 92.000
14.24000 87.000
14.28500 98.000
14.33000 94.000
14.37500 95.000
14.42000 102.000
14.46500 103.000
14.51000 95.000
14.55500 96.000
14.60000 93.000
14.64500 89.000
14.69000 99.000
14.73500 80.000
14.78000 97.000
14.82500 86.000
14.87000 88.000
14.91500 102.000
14.96000 115.000
15.00500 139.000
15.05000 164.000
15.09500 108.000
15.14000 116.000
15.18500 142.000
15.23000 154.000
15.27500 268.000
15.32000 461.000
15.36500 946.000
15.41000 602.000
15.45500 213.000
15.50000 324.000
15.54500 462.000
15.59000 168.000
15.63500 97.000
15.68000 101.000
15.72500 104.000
15.77000 89.000
15.81500 84.000
15.86000 89.000
15.90500 94.000
15.95000 93.000
15.99500 94.000
16.04000 96.000
16.08500 103.000
16.13000 98.000
16.17500 92.000
16.22000 98.000
16.26500 99.000
16.31000 93.000
16.35500 117.000
16.40000 103.000
16.44500 107.000
16.49000 89.000
16.53500 93.000
16.58000 99.000
16.62500 93.000
16.67000 106.000
16.71500 129.000
16.76000 106.000
16.80500 131.000
16.85000 150.000
16.89500 135.000
16.94000 125.000
16.98500 121.000
17.03000 97.000
17.07500 114.000
17.12000 102.000
17.16500 112.000
17.21000 94.000
17.25500 100.000
17.30000 98.000
17.34500 104.000
17.39000 111.000
17.43500 130.000
17.48000 139.000
17.52500 119.000
17.57000 105.000
17.61500 93.000
17.66000 91.000
17.70500 113.000
17.75000 100.000
17.79500 105.000
17.84000 90.000
17.88500 123.000
17.93000 124.000
17.97500 117.000
18.02000 101.000
18.06500 95.000
18.11000 128.000
18.15500 99.000
18.20000 112.000
18.24500 102.000
18.29000 104.000
18.33500 110.000
18.38000 169.000
18.42500 220.000
18.47000 133.000
18.51500 110.000
18.56000 99.000
18.60500 100.000
18.65000 124.000
18.69500 136.000
18.74000 193.000
18.78500 148.000
18.83000 99.000
18.87500 115.000
18.92000 93.000
18.96500 103.000
19.01000 105.000
19.05500 125.000
19.10000 118.000
19.14500 127.000
19.19000 166.000
19.23500 211.000
19.28000 276.000
19.32500 153.000
19.37000 123.000
19.41500 110.000
19.46000 117.000
19.50500 113.000
19.55000 111.000
19.59500 119.000
19.64000 101.000
19.68500 121.000
19.73000 128.000
19.77500 126.000
19.82000 120.000
19.86500 111.000
19.91000 99.000
19.95500 108.000
20.00000 118.000
20.04500 121.000
20.09000 115.000
20.13500 114.000
20.18000 108.000
20.22500 112.000
20.27000 115.000
20.31500 115.000
20.36000 124.000
20.40500 133.000
20.45000 105.000
20.49500 117.000
20.54000 99.000
20.58500 116.000
20.63000 134.000
20.67500 117.000
20.72000 125.000
20.76500 129.000
20.81000 120.000
20.85500 120.000
20.90000 139.000
20.94500 123.000
20.99000 137.000
21.03500 139.000
21.08000 151.000
21.12500 194.000
21.17000 266.000
21.21500 176.000
21.26000 134.000
21.30500 140.000
21.35000 128.000
21.39500 145.000
21.44000 151.000
21.48500 153.000
21.53000 146.000
21.57500 167.000
21.62000 136.000
21.66500 155.000
21.71000 148.000
21.75500 236.000
21.80000 395.000
21.84500 790.000
21.89000 681.000
21.93500 233.000
21.98000 138.000
22.02500 140.000
22.07000 128.000
22.11500 135.000
22.16000 157.000
22.20500 114.000
22.25000 137.000
22.29500 134.000
22.34000 140.000
22.38500 136.000
22.43000 143.000
22.47500 144.000
22.52000 192.000
22.56500 273.000
22.61000 517.000
22.65500 892.000
22.70000 540.000
22.74500 232.000
22.79000 161.000
22.83500 199.000
22.88000 314.000
22.92500 663.000
22.97000 1582.000
23.01500 3969.000
23.06000 6054.000
23.10500 2151.000
23.15000 472.000
23.19500 233.000
23.24000 187.000
23.28500 168.000
23.33000 159.000
23.37500 138.000
23.42000 121.000
23.46500 139.000
23.51000 148.000
23.55500 141.000
23.60000 123.000
23.64500 137.000
23.69000 134.000
23.73500 128.000
23.78000 123.000
23.82500 115.000
23.87000 112.000
23.91500 124.000
23.96000 133.000
24.00500 138.000
24.05000 122.000
24.09500 123.000
24.14000 116.000
24.18500 136.000
24.23000 147.000
24.27500 150.000
24.32000 130.000
24.36500 163.000
24.41000 180.000
24.45500 172.000
24.50000 184.000
24.54500 228.000
24.59000 183.000
24.63500 162.000
24.68000 145.000
24.72500 152.000
24.77000 157.000
24.81500 192.000
24.86000 344.000
24.90500 586.000
24.95000 382.000
24.99500 178.000
25.04000 155.000
25.08500 176.000
25.13000 171.000
25.17500 139.000
25.22000 141.000
25.26500 152.000
25.31000 151.000
25.35500 144.000
25.40000 150.000
25.44500 157.000
25.49000 182.000
25.53500 210.000
25.58000 173.000
25.62500 187.000
25.67000 275.000
25.71500 431.000
25.76000 877.000
25.80500 2286.000
25.85000 2619.000
25.89500 676.000
25.94000 296.000
25.98500 215.000
26.03000 212.000
26.07500 210.000
26.12000 236.000
26.16500 195.000
26.21000 193.000
26.25500 229.000
26.30000 319.000
26.34500 262.000
26.39000 188.000
26.43500 178.000
26.48000 213.000
26.52500 253.000
26.57000 402.000
26.61500 643.000
26.66000 1205.000
26.70500 1387.000
26.75000 574.000
26.79500 243.000
26.84000 190.000
26.88500 180.000
26.93000 181.000
26.97500 168.000
27.02000 171.000
27.06500 186.000
27.11000 201.000
27.15500 197.000
27.20000 204.000
27.24500 229.000
27.29000 258.000
27.33500 272.000
27.38000 271.000
27.42500 271.000
27.47000 267.000
27.51500 307.000
27.56000 474.000
27.60500 884.000
27.65000 1724.000
27.69500 2584.000
27.74000 2100.000
27.78500 956.000
27.83000 360.000
27.87500 246.000
27.92000 176.000
27.96500 194.000
28.01000 178.000
28.05500 164.000
28.10000 162.000
28.14500 147.000
28.19000 154.000
28.23500 140.000
28.28000 165.000
28.32500 160.000
28.37000 158.000
28.41500 193.000
28.46000 169.000
28.50500 207.000
28.55000 357.000
28.59500 778.000
28.64000 1375.000
28.68500 909.000
28.73000 344.000
28.77500 213.000
28.82000 236.000
28.86500 503.000
28.91000 1039.000
28.95500 806.000
29.00000 288.000
29.04500 184.000
29.09000 187.000
29.13500 178.000
29.18000 172.000
29.22500 147.000
29.27000 121.000
29.31500 124.000
29.36000 120.000
29.40500 116.000
29.45000 136.000
29.49500 131.000
29.54000 129.000
29.58500 150.000
29.63000 154.000
29.67500 145.000
29.72000 137.000
29.76500 138.000
29.81000 126.000
29.85500 136.000
29.90000 142.000
29.94500 124.000
29.99000 147.000
30.03500 123.000
30.08000 134.000
30.12500 131.000
30.17000 131.000
30.21500 138.000
30.26000 119.000
30.30500 133.000
30.35000 145.000
30.39500 190.000
30.44000 245.000
30.48500 255.000
30.53000 203.000
30.57500 144.000
30.62000 140.000
30.66500 135.000
30.71000 117.000
30.75500 125.000
30.80000 135.000
30.84500 113.000
30.89000 110.000
30.93500 106.000
30.98000 125.000
31.02500 143.000
31.07000 115.000
31.11500 134.000
31.16000 127.000
31.20500 140.000
31.25000 221.000
31.29500 432.000
31.34000 949.000
31.38500 1092.000
31.43000 517.000
31.47500 215.000
31.52000 176.000
31.56500 125.000
31.61000 140.000
31.65500 134.000
31.70000 131.000
31.74500 110.000
31.79000 103.000
31.83500 98.000
31.88000 127.000
31.92500 118.000
31.97000 125.000
32.01500 132.000
32.06000 130.000
32.10500 132.000
32.15000 127.000
32.19500 100.000
32.24000 127.000
32.28500 109.000
32.33000 123.000
32.37500 103.000
32.42000 102.000
32.46500 107.000
32.51000 130.000
32.55500 113.000
32.60000 102.000
32.64500 129.000
32.69000 123.000
32.73500 114.000
32.78000 109.000
32.82500 112.000
32.87000 113.000
32.91500 99.000
32.96000 92.000
33.00500 100.000
33.05000 110.000
33.09500 128.000
33.14000 118.000
33.18500 139.000
33.23000 191.000
33.27500 213.000
33.32000 158.000
33.36500 131.000
33.41000 135.000
33.45500 162.000
33.50000 139.000
33.54500 112.000
33.59000 109.000
33.63500 118.000
33.68000 129.000
33.72500 148.000
33.77000 136.000
33.81500 110.000
33.86000 91.000
33.90500 106.000
33.95000 126.000
33.99500 166.000
34.04000 252.000
34.08500 501.000
34.13000 872.000
34.17500 677.000
34.22000 361.000
34.26500 262.000
34.31000 156.000
34.35500 133.000
34.40000 102.000
34.44500 107.000
34.49000 96.000
34.53500 103.000
34.58000 113.000
34.62500 103.000
34.67000 126.000
34.71500 116.000
34.76000 152.000
34.80500 173.000
34.85000 256.000
34.89500 295.000
34.94000 205.000
34.98500 131.000
35.03000 110.000
35.07500 125.000
35.12000 105.000
35.16500 107.000
35.21000 95.000
35.25500 106.000
35.30000 128.000
35.34500 105.000
35.39000 119.000
35.43500 114.000
35.48000 113.000
35.52500 116.000
35.57000 98.000
35.61500 112.000
35.66000 117.000
35.70500 115.000
35.75000 188.000
35.79500 365.000
35.84000 546.000
35.88500 490.000
35.93000 270.000
35.97500 191.000
36.02000 210.000
36.06500 281.000
36.11000 250.000
36.15500 164.000
36.20000 119.000
36.24500 108.000
36.29000 98.000
36.33500 101.000
36.38000 98.000
36.42500 113.000
36.47000 97.000
36.51500 101.000
36.56000 97.000
36.60500 90.000
36.65000 99.000
36.69500 102.000
36.74000 97.000
36.78500 87.000
36.83000 115.000
36.87500 133.000
36.92000 214.000
36.96500 430.000
37.01000 787.000
37.05500 721.000
37.10000 337.000
37.14500 163.000
37.19000 126.000
37.23500 130.000
37.28000 158.000
37.32500 193.000
37.37000 198.000
37.41500 130.000
37.46000 126.000
37.50500 120.000
37.55000 112.000
37.59500 116.000
37.64000 106.000
37.68500 132.000
37.73000 203.000
37.77500 294.000
37.82000 320.000
37.86500 254.000
37.91000 311.000
37.95500 321.000
38.00000 218.000
38.04500 133.000
38.09000 119.000
38.13500 85.000
38.18000 109.000
38.22500 92.000
38.27000 88.000
38.31500 100.000
38.36000 89.000
38.40500 93.000
38.45000 96.000
38.49500 82.000
38.54000 87.000
38.58500 106.000
38.63000 102.000
38.67500 81.000
38.72000 112.000
38.76500 103.000
38.81000 112.000
38.85500 112.000
38.90000 104.000
38.94500 105.000
38.99000 94.000
39.03500 88.000
39.08000 89.000
39.12500 119.000
39.17000 99.000
39.21500 127.000
39.26000 175.000
39.30500 364.000
39.35000 471.000
39.39500 293.000
39.44000 151.000
39.48500 115.000
39.53000 110.000
39.57500 104.000
39.62000 82.000
39.66500 96.000
39.71000 85.000
39.75500 80.000
39.80000 86.000
39.84500 106.000
39.89000 92.000
39.93500 98.000
39.98000 88.000
40.02500 83.000
40.07000 90.000
40.11500 95.000
40.16000 89.000
40.20500 104.000
40.25000 79.000
40.29500 81.000
40.34000 103.000
40.38500 103.000
40.43000 114.000
40.47500 129.000
40.52000 107.000
40.56500 115.000
40.61000 158.000
40.65500 199.000
40.70000 152.000
40.74500 124.000
40.79000 121.000
40.83500 113.000
40.88000 100.000
40.92500 84.000
40.97000 94.000
41.01500 94.000
41.06000 80.000
41.10500 89.000
41.15000 88.000
41.19500 80.000
41.24000 91.000
41.28500 96.000
41.33000 109.000
41.37500 86.000
41.42000 76.000
41.46500 78.000
41.51000 96.000
41.55500 101.000
41.60000 77.000
41.64500 83.000
41.69000 95.000
41.73500 95.000
41.78000 84.000
41.82500 83.000
41.87000 101.000
41.91500 105.000
41.96000 132.000
42.00500 187.000
42.05000 242.000
42.09500 237.000
42.14000 170.000
42.18500 142.000
42.23000 119.000
42.27500 107.000
42.32000 102.000
42.36500 90.000
42.41000 123.000
42.45500 96.000
42.50000 109.000
42.54500 152.000
42.59000 185.000
42.63500 382.000
42.68000 595.000
42.72500 699.000
42.77000 533.000
42.81500 277.000
42.86000 176.000
42.90500 120.000
42.95000 120.000
42.99500 119.000
43.04000 134.000
43.08500 153.000
43.13000 192.000
43.17500 139.000
43.22000 109.000
43.26500 96.000
43.31000 104.000
43.35500 101.000
43.40000 99.000
43.44500 89.000
43.49000 92.000
43.53500 97.000
43.58000 98.000
43.62500 84.000
43.67000 102.000
43.71500 92.000
43.76000 92.000
43.80500 101.000
43.85000 113.000
43.89500 165.000
43.94000 163.000
43.98500 147.000
44.03000 129.000
44.07500 95.000
44.12000 112.000
44.16500 111.000
44.21000 103.000
44.25500 123.000
44.30000 157.000
44.34500 156.000
44.39000 121.000
44.43500 103.000
44.48000 112.000
44.52500 114.000
44.57000 113.000
44.61500 90.000
44.66000 101.000
44.70500 103.000
44.75000 88.000
44.79500 88.000
44.84000 92.000
44.88500 109.000
44.93000 93.000
44.97500 105.000
45.02000 126.000
45.06500 148.000
45.11000 178.000
45.15500 168.000
45.20000 155.000
45.24500 133.000
45.29000 130.000
45.33500 100.000
45.38000 97.000
45.42500 122.000
45.47000 149.000
45.51500 201.000
45.56000 277.000
45.60500 228.000
45.65000 193.000
45.69500 134.000
45.74000 114.000
45.78500 98.000
45.83000 105.000
45.87500 118.000
45.92000 113.000
45.96500 109.000
46.01000 107.000
46.05500 112.000
46.10000 116.000
46.14500 132.000
46.19000 154.000
46.23500 184.000
46.28000 228.000
46.32500 177.000
46.37000 146.000
46.41500 120.000
46.46000 110.000
46.50500 86.000
46.55000 86.000
46.59500 99.000
46.64000 89.000
46.68500 98.000
46.73000 89.000
46.77500 100.000
46.82000 90.000
46.86500 89.000
46.91000 102.000
46.95500 108.000
47.00000 115.000
47.04500 127.000
47.09000 149.000
47.13500 157.000
47.18000 141.000
47.22500 115.000
47.27000 86.000
47.31500 98.000
47.36000 92.000
47.40500 103.000
47.45000 108.000
47.49500 107.000
47.54000 149.000
47.58500 181.000
47.63000 264.000
47.67500 375.000
47.72000 423.000
47.76500 436.000
47.81000 373.000
47.85500 333.000
47.90000 213.000
47.94500 151.000
47.99000 153.000
48.03500 129.000
48.08000 110.000
48.12500 107.000
48.17000 114.000
48.21500 119.000
48.26000 87.000
48.30500 100.000
48.35000 95.000
48.39500 103.000
48.44000 114.000
48.48500 107.000
48.53000 110.000
48.57500 103.000
48.62000 100.000
48.66500 90.000
48.71000 99.000
48.75500 101.000
48.80000 87.000
48.84500 95.000
48.89000 104.000
48.93500 89.000
48.98000 126.000
49.02500 123.000
49.07000 124.000
49.11500 126.000
49.16000 120.000
49.20500 97.000
49.25000 95.000
49.29500 95.000
49.34000 108.000
49.38500 135.000
49.43000 147.000
49.47500 167.000
49.52000 141.000
49.56500 138.000
49.61000 141.000
49.65500 163.000
49.70000 171.000
49.74500 135.000
49.79000 131.000
49.83500 184.000
49.88000 237.000
49.92500 279.000
49.97000 327.000
50.01500 315.000
50.06000 228.000
50.10500 144.000
50.15000 116.000
50.19500 110.000
50.24000 101.000
50.28500 108.000
50.33000 102.000
50.37500 117.000
50.42000 130.000
50.46500 113.000
50.51000 121.000
50.55500 109.000
50.60000 102.000
50.64500 103.000
50.69000 109.000
50.73500 118.000
50.78000 119.000
50.82500 118.000
50.87000 93.000
50.91500 109.000
50.96000 107.000
51.00500 124.000
51.05000 181.000
51.09500 238.000
51.14000 418.000
51.18500 607.000
51.23000 644.000
51.27500 400.000
51.32000 237.000
51.36500 150.000
51.41000 136.000
51.45500 114.000
51.50000 103.000
51.54500 112.000
51.59000 108.000
51.63500 122.000
51.68000 136.000
51.72500 130.000
51.77000 120.000
51.81500 110.000
51.86000 150.000
51.90500 177.000
51.95000 253.000
51.99500 362.000
52.04000 368.000
52.08500 255.000
52.13000 180.000
52.17500 137.000
52.22000 110.000
52.26500 111.000
52.31000 118.000
52.35500 100.000
52.40000 115.000
52.44500 118.000
52.49000 96.000
52.53500 119.000
52.58000 112.000
52.62500 129.000
52.67000 104.000
52.71500 113.000
52.76000 120.000
52.80500 141.000
52.85000 176.000
52.89500 232.000
52.94000 319.000
52.98500 390.000
53.03000 371.000
53.07500 403.000
53.12000 461.000
53.16500 372.000
53.21000 238.000
53.25500 196.000
53.30000 164.000
53.34500 142.000
53.39000 137.000
53.43500 115.000
53.48000 112.000
53.52500 138.000
53.57000 125.000
53.61500 123.000
53.66000 114.000
53.70500 128.000
53.75000 143.000
53.79500 191.000
53.84000 257.000
53.88500 371.000
53.93000 423.000
53.97500 352.000
54.02000 231.000
54.06500 173.000
54.11000 155.000
54.15500 144.000
54.20000 123.000
54.24500 114.000
54.29000 99.000
54.33500 114.000
54.38000 104.000
54.42500 98.000
54.47000 113.000
54.51500 107.000
54.56000 103.000
54.60500 119.000
54.65000 111.000
54.69500 107.000
54.74000 108.000
54.78500 124.000
54.83000 114.000
54.87500 104.000
54.92000 129.000
54.96500 135.000
55.01000 155.000
55.05500 185.000
55.10000 207.000
55.14500 211.000
55.19000 177.000
55.23500 171.000
55.28000 158.000
55.32500 190.000
55.37000 171.000
55.41500 178.000
55.46000 153.000
55.50500 163.000
55.55000 142.000
55.59500 169.000
55.64000 201.000
55.68500 266.000
55.73000 350.000
55.77500 291.000
55.82000 265.000
55.86500 193.000
55.91000 172.000
55.95500 159.000
56.00000 137.000
56.04500 124.000
56.09000 124.000
56.13500 103.000
56.18000 131.000
56.22500 120.000
56.27000 127.000
56.31500 117.000
56.36000 124.000
56.40500 122.000
56.45000 135.000
56.49500 186.000
56.54000 221.000
56.58500 295.000
56.63000 364.000
56.67500 378.000
56.72000 320.000
56.76500 258.000
56.81000 197.000
56.85500 153.000
56.90000 148.000
56.94500 135.000
56.99000 135.000
57.03500 145.000
57.08000 140.000
57.12500 155.000
57.17000 173.000
57.21500 222.000
57.26000 281.000
57.30500 319.000
57.35000 341.000
57.39500 252.000
57.44000 204.000
57.48500 192.000
57.53000 222.000
57.57500 217.000
57.62000 202.000
57.66500 197.000
57.71000 194.000
57.75500 176.000
57.80000 179.000
57.84500 173.000
57.89000 150.000
57.93500 112.000
57.98000 122.000
58.02500 120.000
58.07000 121.000
58.11500 108.000
58.16000 110.000
58.20500 107.000
58.25000 114.000
58.29500 105.000
58.34000 113.000
58.38500 100.000
58.43000 108.000
58.47500 116.000
58.52000 121.000
58.56500 113.000
58.61000 120.000
58.65500 112.000
58.70000 109.000
58.74500 124.000
58.79000 100.000
58.83500 113.000
58.88000 118.000
58.92500 122.000
58.97000 139.000
59.01500 166.000
59.06000 181.000
59.10500 157.000
59.15000 142.000
59.19500 138.000
59.24000 128.000
59.28500 123.000
59.33000 111.000
59.37500 105.000
59.42000 96.000
59.46500 95.000
59.51000 103.000
59.55500 113.000
59.60000 103.000
59.64500 115.000
59.69000 117.000
59.73500 152.000
59.78000 117.000
59.82500 128.000
59.87000 164.000
59.91500 162.000
59.96000 184.000
60.00500 152.000
60.05000 134.000
60.09500 135.000
60.14000 163.000
60.18500 157.000
60.23000 123.000
60.27500 122.000
60.32000 123.000
60.36500 126.000
60.41000 148.000
60.45500 177.000
60.50000 182.000
60.54500 137.000
60.59000 151.000
60.63500 113.000
60.68000 107.000
60.72500 116.000
60.77000 112.000
60.81500 103.000
60.86000 101.000
60.90500 99.000
60.95000 103.000
60.99500 113.000
61.04000 118.000
61.08500 139.000
61.13000 116.000
61.17500 119.000
61.22000 116.000
61.26500 123.000
61.31000 113.000
61.35500 92.000
61.40000 98.000
61.44500 108.000
61.49000 126.000
61.53500 146.000
61.58000 196.000
61.62500 225.000
61.67000 175.000
61.71500 135.000
61.76000 111.000
61.80500 124.000
61.85000 106.000
61.89500 118.000
61.94000 116.000
61.98500 103.000