File: ISoD/xrd_data/HSC005_range_2.xy
2.00000 321.000
2.04500 334.000
2.09000 286.000
2.13500 266.000
2.18000 284.000
2.22500 250.000
2.27000 259.000
2.31500 218.000
2.36000 219.000
2.40500 196.000
2.45000 207.000
2.49500 206.000
2.54000 214.000
2.58500 186.000
2.63000 196.000
2.67500 173.000
2.72000 180.000
2.76500 201.000
2.81000 180.000
2.85500 172.000
2.90000 160.000
2.94500 191.000
2.99000 162.000
3.03500 185.000
3.08000 177.000
3.12500 143.000
3.17000 169.000
3.21500 158.000
3.26000 150.000
3.30500 164.000
3.35000 173.000
3.39500 163.000
3.44000 174.000
3.48500 171.000
3.53000 157.000
3.57500 148.000
3.62000 165.000
3.66500 150.000
3.71000 154.000
3.75500 169.000
3.80000 143.000
3.84500 188.000
3.89000 175.000
3.93500 158.000
3.98000 162.000
4.02500 184.000
4.07000 162.000
4.11500 157.000
4.16000 152.000
4.20500 146.000
4.25000 178.000
4.29500 157.000
4.34000 145.000
4.38500 158.000
4.43000 142.000
4.47500 155.000
4.52000 157.000
4.56500 146.000
4.61000 157.000
4.65500 149.000
4.70000 175.000
4.74500 174.000
4.79000 150.000
4.83500 154.000
4.88000 169.000
4.92500 165.000
4.97000 163.000
5.01500 168.000
5.06000 166.000
5.10500 152.000
5.15000 165.000
5.19500 148.000
5.24000 188.000
5.28500 157.000
5.33000 164.000
5.37500 153.000
5.42000 151.000
5.46500 159.000
5.51000 175.000
5.55500 140.000
5.60000 165.000
5.64500 159.000
5.69000 175.000
5.73500 146.000
5.78000 184.000
5.82500 171.000
5.87000 167.000
5.91500 166.000
5.96000 172.000
6.00500 161.000
6.05000 184.000
6.09500 181.000
6.14000 170.000
6.18500 188.000
6.23000 191.000
6.27500 177.000
6.32000 166.000
6.36500 177.000
6.41000 177.000
6.45500 184.000
6.50000 166.000
6.54500 181.000
6.59000 157.000
6.63500 150.000
6.68000 170.000
6.72500 181.000
6.77000 163.000
6.81500 157.000
6.86000 177.000
6.90500 177.000
6.95000 165.000
6.99500 169.000
7.04000 162.000
7.08500 168.000
7.13000 167.000
7.17500 153.000
7.22000 175.000
7.26500 171.000
7.31000 163.000
7.35500 166.000
7.40000 167.000
7.44500 170.000
7.49000 180.000
7.53500 150.000
7.58000 167.000
7.62500 158.000
7.67000 161.000
7.71500 153.000
7.76000 170.000
7.80500 162.000
7.85000 167.000
7.89500 170.000
7.94000 168.000
7.98500 160.000
8.03000 170.000
8.07500 177.000
8.12000 149.000
8.16500 170.000
8.21000 153.000
8.25500 169.000
8.30000 152.000
8.34500 162.000
8.39000 179.000
8.43500 171.000
8.48000 169.000
8.52500 172.000
8.57000 193.000
8.61500 171.000
8.66000 174.000
8.70500 145.000
8.75000 177.000
8.79500 165.000
8.84000 151.000
8.88500 173.000
8.93000 138.000
8.97500 194.000
9.02000 155.000
9.06500 163.000
9.11000 158.000
9.15500 165.000
9.20000 170.000
9.24500 166.000
9.29000 175.000
9.33500 157.000
9.38000 159.000
9.42500 177.000
9.47000 168.000
9.51500 176.000
9.56000 173.000
9.60500 172.000
9.65000 184.000
9.69500 184.000
9.74000 188.000
9.78500 166.000
9.83000 183.000
9.87500 179.000
9.92000 170.000
9.96500 186.000
10.01000 157.000
10.05500 167.000
10.10000 167.000
10.14500 159.000
10.19000 201.000
10.23500 162.000
10.28000 184.000
10.32500 159.000
10.37000 182.000
10.41500 179.000
10.46000 179.000
10.50500 176.000
10.55000 161.000
10.59500 165.000
10.64000 187.000
10.68500 184.000
10.73000 209.000
10.77500 164.000
10.82000 185.000
10.86500 194.000
10.91000 178.000
10.95500 206.000
11.00000 172.000
11.04500 169.000
11.09000 164.000
11.13500 173.000
11.18000 154.000
11.22500 164.000
11.27000 153.000
11.31500 174.000
11.36000 159.000
11.40500 169.000
11.45000 159.000
11.49500 175.000
11.54000 167.000
11.58500 173.000
11.63000 160.000
11.67500 170.000
11.72000 190.000
11.76500 147.000
11.81000 198.000
11.85500 187.000
11.90000 236.000
11.94500 264.000
11.99000 389.000
12.03500 676.000
12.08000 485.000
12.12500 231.000
12.17000 180.000
12.21500 180.000
12.26000 190.000
12.30500 203.000
12.35000 204.000
12.39500 170.000
12.44000 158.000
12.48500 185.000
12.53000 162.000
12.57500 159.000
12.62000 162.000
12.66500 183.000
12.71000 179.000
12.75500 179.000
12.80000 188.000
12.84500 162.000
12.89000 172.000
12.93500 174.000
12.98000 152.000
13.02500 176.000
13.07000 171.000
13.11500 159.000
13.16000 175.000
13.20500 196.000
13.25000 153.000
13.29500 161.000
13.34000 170.000
13.38500 174.000
13.43000 166.000
13.47500 164.000
13.52000 170.000
13.56500 183.000
13.61000 177.000
13.65500 200.000
13.70000 162.000
13.74500 167.000
13.79000 171.000
13.83500 192.000
13.88000 192.000
13.92500 158.000
13.97000 179.000
14.01500 174.000
14.06000 181.000
14.10500 156.000
14.15000 154.000
14.19500 173.000
14.24000 169.000
14.28500 171.000
14.33000 151.000
14.37500 162.000
14.42000 180.000
14.46500 168.000
14.51000 181.000
14.55500 175.000
14.60000 181.000
14.64500 164.000
14.69000 173.000
14.73500 182.000
14.78000 184.000
14.82500 173.000
14.87000 179.000
14.91500 180.000
14.96000 183.000
15.00500 187.000
15.05000 163.000
15.09500 176.000
15.14000 177.000
15.18500 175.000
15.23000 163.000
15.27500 174.000
15.32000 185.000
15.36500 173.000
15.41000 168.000
15.45500 172.000
15.50000 165.000
15.54500 177.000
15.59000 167.000
15.63500 164.000
15.68000 174.000
15.72500 176.000
15.77000 179.000
15.81500 181.000
15.86000 186.000
15.90500 195.000
15.95000 180.000
15.99500 198.000
16.04000 174.000
16.08500 172.000
16.13000 187.000
16.17500 177.000
16.22000 180.000
16.26500 191.000
16.31000 173.000
16.35500 178.000
16.40000 187.000
16.44500 164.000
16.49000 185.000
16.53500 182.000
16.58000 170.000
16.62500 172.000
16.67000 189.000
16.71500 204.000
16.76000 199.000
16.80500 193.000
16.85000 173.000
16.89500 183.000
16.94000 182.000
16.98500 176.000
17.03000 170.000
17.07500 192.000
17.12000 188.000
17.16500 183.000
17.21000 188.000
17.25500 204.000
17.30000 196.000
17.34500 173.000
17.39000 172.000
17.43500 189.000
17.48000 190.000
17.52500 200.000
17.57000 198.000
17.61500 185.000
17.66000 190.000
17.70500 217.000
17.75000 206.000
17.79500 191.000
17.84000 211.000
17.88500 189.000
17.93000 203.000
17.97500 192.000
18.02000 196.000
18.06500 199.000
18.11000 203.000
18.15500 193.000
18.20000 200.000
18.24500 215.000
18.29000 224.000
18.33500 213.000
18.38000 218.000
18.42500 203.000
18.47000 197.000
18.51500 212.000
18.56000 207.000
18.60500 203.000
18.65000 198.000
18.69500 220.000
18.74000 202.000
18.78500 206.000
18.83000 214.000
18.87500 228.000
18.92000 221.000
18.96500 211.000
19.01000 230.000
19.05500 228.000
19.10000 218.000
19.14500 202.000
19.19000 230.000
19.23500 212.000
19.28000 200.000
19.32500 211.000
19.37000 229.000
19.41500 216.000
19.46000 201.000
19.50500 231.000
19.55000 198.000
19.59500 198.000
19.64000 205.000
19.68500 181.000
19.73000 215.000
19.77500 214.000
19.82000 198.000
19.86500 191.000
19.91000 213.000
19.95500 225.000
20.00000 216.000
20.04500 227.000
20.09000 216.000
20.13500 214.000
20.18000 206.000
20.22500 205.000
20.27000 214.000
20.31500 226.000
20.36000 216.000
20.40500 209.000
20.45000 202.000
20.49500 231.000
20.54000 222.000
20.58500 227.000
20.63000 227.000
20.67500 254.000
20.72000 246.000
20.76500 331.000
20.81000 501.000
20.85500 965.000
20.90000 2363.000
20.94500 3998.000
20.99000 1474.000
21.03500 452.000
21.08000 288.000
21.12500 274.000
21.17000 257.000
21.21500 239.000
21.26000 236.000
21.30500 245.000
21.35000 228.000
21.39500 233.000
21.44000 249.000
21.48500 243.000
21.53000 228.000
21.57500 236.000
21.62000 231.000
21.66500 242.000
21.71000 242.000
21.75500 251.000
21.80000 254.000
21.84500 256.000
21.89000 242.000
21.93500 256.000
21.98000 250.000
22.02500 240.000
22.07000 243.000
22.11500 239.000
22.16000 240.000
22.20500 243.000
22.25000 229.000
22.29500 247.000
22.34000 224.000
22.38500 230.000
22.43000 243.000
22.47500 242.000
22.52000 259.000
22.56500 248.000
22.61000 240.000
22.65500 256.000
22.70000 227.000
22.74500 251.000
22.79000 219.000
22.83500 254.000
22.88000 245.000
22.92500 225.000
22.97000 230.000
23.01500 252.000
23.06000 260.000
23.10500 229.000
23.15000 259.000
23.19500 247.000
23.24000 266.000
23.28500 241.000
23.33000 256.000
23.37500 246.000
23.42000 235.000
23.46500 251.000
23.51000 243.000
23.55500 266.000
23.60000 264.000
23.64500 254.000
23.69000 244.000
23.73500 251.000
23.78000 237.000
23.82500 242.000
23.87000 235.000
23.91500 242.000
23.96000 263.000
24.00500 271.000
24.05000 323.000
24.09500 407.000
24.14000 636.000
24.18500 1499.000
24.23000 2294.000
24.27500 976.000
24.32000 421.000
24.36500 374.000
24.41000 407.000
24.45500 407.000
24.50000 401.000
24.54500 365.000
24.59000 325.000
24.63500 318.000
24.68000 312.000
24.72500 291.000
24.77000 291.000
24.81500 264.000
24.86000 312.000
24.90500 307.000
24.95000 304.000
24.99500 329.000
25.04000 437.000
25.08500 584.000
25.13000 827.000
25.17500 1069.000
25.22000 943.000
25.26500 613.000
25.31000 484.000
25.35500 353.000
25.40000 357.000
25.44500 335.000
25.49000 333.000
25.53500 314.000
25.58000 342.000
25.62500 326.000
25.67000 319.000
25.71500 291.000
25.76000 313.000
25.80500 284.000
25.85000 310.000
25.89500 294.000
25.94000 280.000
25.98500 296.000
26.03000 274.000
26.07500 306.000
26.12000 334.000
26.16500 298.000
26.21000 323.000
26.25500 304.000
26.30000 317.000
26.34500 326.000
26.39000 345.000
26.43500 320.000
26.48000 327.000
26.52500 335.000
26.57000 329.000
26.61500 346.000
26.66000 334.000
26.70500 357.000
26.75000 324.000
26.79500 363.000
26.84000 390.000
26.88500 357.000
26.93000 344.000
26.97500 332.000
27.02000 375.000
27.06500 359.000
27.11000 393.000
27.15500 357.000
27.20000 377.000
27.24500 337.000
27.29000 362.000
27.33500 399.000
27.38000 391.000
27.42500 421.000
27.47000 376.000
27.51500 474.000
27.56000 434.000
27.60500 439.000
27.65000 481.000
27.69500 558.000
27.74000 684.000
27.78500 807.000
27.83000 1033.000
27.87500 1451.000
27.92000 2022.000
27.96500 2647.000
28.01000 2841.000
28.05500 2339.000
28.10000 1672.000
28.14500 1084.000
28.19000 800.000
28.23500 604.000
28.28000 561.000
28.32500 475.000
28.37000 410.000
28.41500 423.000
28.46000 369.000
28.50500 330.000
28.55000 315.000
28.59500 306.000
28.64000 319.000
28.68500 294.000
28.73000 313.000
28.77500 305.000
28.82000 277.000
28.86500 256.000
28.91000 267.000
28.95500 246.000
29.00000 263.000
29.04500 265.000
29.09000 251.000
29.13500 255.000
29.18000 250.000
29.22500 243.000
29.27000 235.000
29.31500 255.000
29.36000 247.000
29.40500 244.000
29.45000 252.000
29.49500 236.000
29.54000 243.000
29.58500 235.000
29.63000 228.000
29.67500 229.000
29.72000 228.000
29.76500 214.000
29.81000 246.000
29.85500 230.000
29.90000 221.000
29.94500 228.000
29.99000 218.000
30.03500 220.000
30.08000 212.000
30.12500 213.000
30.17000 198.000
30.21500 219.000
30.26000 203.000
30.30500 237.000
30.35000 219.000
30.39500 208.000
30.44000 212.000
30.48500 206.000
30.53000 210.000
30.57500 202.000
30.62000 208.000
30.66500 195.000
30.71000 189.000
30.75500 199.000
30.80000 201.000
30.84500 191.000
30.89000 174.000
30.93500 198.000
30.98000 198.000
31.02500 193.000
31.07000 194.000
31.11500 174.000
31.16000 185.000
31.20500 188.000
31.25000 184.000
31.29500 200.000
31.34000 205.000
31.38500 187.000
31.43000 197.000
31.47500 196.000
31.52000 170.000
31.56500 202.000
31.61000 207.000
31.65500 171.000
31.70000 196.000
31.74500 174.000
31.79000 195.000
31.83500 190.000
31.88000 191.000
31.92500 208.000
31.97000 214.000
32.01500 238.000
32.06000 253.000
32.10500 382.000
32.15000 818.000
32.19500 1928.000
32.24000 2574.000
32.28500 1152.000
32.33000 402.000
32.37500 265.000
32.42000 246.000
32.46500 204.000
32.51000 210.000
32.55500 212.000
32.60000 231.000
32.64500 212.000
32.69000 216.000
32.73500 262.000
32.78000 300.000
32.82500 309.000
32.87000 414.000
32.91500 457.000
32.96000 485.000
33.00500 462.000
33.05000 433.000
33.09500 347.000
33.14000 263.000
33.18500 273.000
33.23000 216.000
33.27500 206.000
33.32000 192.000
33.36500 167.000
33.41000 173.000
33.45500 194.000
33.50000 190.000
33.54500 174.000
33.59000 173.000
33.63500 168.000
33.68000 166.000
33.72500 156.000
33.77000 150.000
33.81500 168.000
33.86000 171.000
33.90500 165.000
33.95000 166.000
33.99500 155.000
34.04000 155.000
34.08500 155.000
34.13000 179.000
34.17500 175.000
34.22000 178.000
34.26500 160.000
34.31000 151.000
34.35500 161.000
34.40000 168.000
34.44500 171.000
34.49000 172.000
34.53500 177.000
34.58000 177.000
34.62500 203.000
34.67000 198.000
34.71500 196.000
34.76000 189.000
34.80500 204.000
34.85000 196.000
34.89500 200.000
34.94000 215.000
34.98500 230.000
35.03000 260.000
35.07500 283.000
35.12000 366.000
35.16500 437.000
35.21000 499.000
35.25500 462.000
35.30000 368.000
35.34500 293.000
35.39000 284.000
35.43500 228.000
35.48000 214.000
35.52500 202.000
35.57000 163.000
35.61500 173.000
35.66000 158.000
35.70500 175.000
35.75000 146.000
35.79500 154.000
35.84000 163.000
35.88500 150.000
35.93000 143.000
35.97500 153.000
36.02000 132.000
36.06500 136.000
36.11000 129.000
36.15500 141.000
36.20000 152.000
36.24500 148.000
36.29000 142.000
36.33500 147.000
36.38000 138.000
36.42500 129.000
36.47000 149.000
36.51500 140.000
36.56000 154.000
36.60500 224.000
36.65000 351.000
36.69500 434.000
36.74000 286.000
36.78500 172.000
36.83000 132.000
36.87500 133.000
36.92000 129.000
36.96500 132.000
37.01000 121.000
37.05500 120.000
37.10000 128.000
37.14500 135.000
37.19000 130.000
37.23500 139.000
37.28000 135.000
37.32500 123.000
37.37000 125.000
37.41500 123.000
37.46000 128.000
37.50500 148.000
37.55000 123.000
37.59500 135.000
37.64000 125.000
37.68500 128.000
37.73000 107.000
37.77500 115.000
37.82000 125.000
37.86500 122.000
37.91000 123.000
37.95500 125.000
38.00000 129.000
38.04500 98.000
38.09000 120.000
38.13500 127.000
38.18000 122.000
38.22500 145.000
38.27000 111.000
38.31500 127.000
38.36000 104.000
38.40500 123.000
38.45000 110.000
38.49500 116.000
38.54000 113.000
38.58500 106.000
38.63000 123.000
38.67500 131.000
38.72000 137.000
38.76500 123.000
38.81000 124.000
38.85500 131.000
38.90000 115.000
38.94500 108.000
38.99000 113.000
39.03500 114.000
39.08000 122.000
39.12500 109.000
39.17000 115.000
39.21500 126.000
39.26000 109.000
39.30500 124.000
39.35000 126.000
39.39500 106.000
39.44000 124.000
39.48500 114.000
39.53000 129.000
39.57500 109.000
39.62000 120.000
39.66500 131.000
39.71000 119.000
39.75500 116.000
39.80000 123.000
39.84500 113.000
39.89000 140.000
39.93500 128.000
39.98000 120.000
40.02500 126.000
40.07000 115.000
40.11500 133.000
40.16000 105.000
40.20500 118.000
40.25000 121.000
40.29500 113.000
40.34000 137.000
40.38500 124.000
40.43000 99.000
40.47500 131.000
40.52000 125.000
40.56500 118.000
40.61000 120.000
40.65500 126.000
40.70000 124.000
40.74500 122.000
40.79000 132.000
40.83500 131.000
40.88000 139.000
40.92500 126.000
40.97000 161.000
41.01500 164.000
41.06000 159.000
41.10500 204.000
41.15000 214.000
41.19500 234.000
41.24000 278.000
41.28500 285.000
41.33000 331.000
41.37500 307.000
41.42000 266.000
41.46500 244.000
41.51000 220.000
41.55500 195.000
41.60000 169.000
41.64500 141.000
41.69000 132.000
41.73500 139.000
41.78000 136.000
41.82500 119.000
41.87000 122.000
41.91500 128.000
41.96000 128.000
42.00500 114.000
42.05000 135.000
42.09500 127.000
42.14000 121.000
42.18500 110.000
42.23000 128.000
42.27500 130.000
42.32000 126.000
42.36500 121.000
42.41000 124.000
42.45500 117.000
42.50000 129.000
42.54500 116.000
42.59000 115.000
42.63500 135.000
42.68000 107.000
42.72500 130.000
42.77000 116.000
42.81500 119.000
42.86000 128.000
42.90500 127.000
42.95000 117.000
42.99500 120.000
43.04000 129.000
43.08500 117.000
43.13000 106.000
43.17500 130.000
43.22000 113.000
43.26500 128.000
43.31000 121.000
43.35500 111.000
43.40000 125.000
43.44500 134.000
43.49000 115.000
43.53500 118.000
43.58000 124.000
43.62500 121.000
43.67000 124.000
43.71500 124.000
43.76000 128.000
43.80500 112.000
43.85000 129.000
43.89500 121.000
43.94000 123.000
43.98500 120.000
44.03000 131.000
44.07500 128.000
44.12000 124.000
44.16500 119.000
44.21000 139.000
44.25500 132.000
44.30000 189.000
44.34500 250.000
44.39000 461.000
44.43500 680.000
44.48000 640.000
44.52500 370.000
44.57000 267.000
44.61500 255.000
44.66000 225.000
44.70500 211.000
44.75000 209.000
44.79500 200.000
44.84000 224.000
44.88500 229.000
44.93000 262.000
44.97500 286.000
45.02000 286.000
45.06500 285.000
45.11000 258.000
45.15500 204.000
45.20000 206.000
45.24500 173.000
45.29000 153.000
45.33500 137.000
45.38000 144.000
45.42500 121.000
45.47000 134.000
45.51500 127.000
45.56000 109.000
45.60500 128.000
45.65000 140.000
45.69500 112.000
45.74000 119.000
45.78500 101.000
45.83000 118.000
45.87500 113.000
45.92000 118.000
45.96500 103.000
46.01000 110.000
46.05500 124.000
46.10000 140.000
46.14500 146.000
46.19000 138.000
46.23500 152.000
46.28000 154.000
46.32500 185.000
46.37000 198.000
46.41500 187.000
46.46000 136.000
46.50500 138.000
46.55000 140.000
46.59500 129.000
46.64000 117.000
46.68500 115.000
46.73000 118.000
46.77500 123.000
46.82000 109.000
46.86500 97.000
46.91000 114.000
46.95500 111.000
47.00000 96.000
47.04500 110.000
47.09000 121.000
47.13500 109.000
47.18000 102.000
47.22500 107.000
47.27000 102.000
47.31500 112.000
47.36000 123.000
47.40500 114.000
47.45000 104.000
47.49500 94.000
47.54000 83.000
47.58500 118.000
47.63000 109.000
47.67500 113.000
47.72000 119.000
47.76500 130.000
47.81000 106.000
47.85500 97.000
47.90000 111.000
47.94500 107.000
47.99000 101.000
48.03500 96.000
48.08000 116.000
48.12500 101.000
48.17000 90.000
48.21500 119.000
48.26000 110.000
48.30500 111.000
48.35000 112.000
48.39500 97.000
48.44000 108.000
48.48500 111.000
48.53000 124.000
48.57500 105.000
48.62000 109.000
48.66500 91.000
48.71000 109.000
48.75500 98.000
48.80000 97.000
48.84500 107.000
48.89000 97.000
48.93500 89.000
48.98000 101.000
49.02500 119.000
49.07000 106.000
49.11500 111.000
49.16000 113.000
49.20500 108.000
49.25000 109.000
49.29500 127.000
49.34000 113.000
49.38500 114.000
49.43000 123.000
49.47500 136.000
49.52000 168.000
49.56500 249.000
49.61000 315.000
49.65500 263.000
49.70000 212.000
49.74500 185.000
49.79000 174.000
49.83500 185.000
49.88000 218.000
49.92500 255.000
49.97000 284.000
50.01500 333.000
50.06000 404.000
50.10500 446.000
50.15000 457.000
50.19500 406.000
50.24000 339.000
50.28500 325.000
50.33000 250.000
50.37500 213.000
50.42000 182.000
50.46500 167.000
50.51000 170.000
50.55500 154.000
50.60000 158.000
50.64500 137.000
50.69000 129.000
50.73500 125.000
50.78000 117.000
50.82500 104.000
50.87000 132.000
50.91500 104.000
50.96000 119.000
51.00500 97.000
51.05000 131.000
51.09500 117.000
51.14000 115.000
51.18500 131.000
51.23000 123.000
51.27500 133.000
51.32000 132.000
51.36500 150.000
51.41000 152.000
51.45500 180.000
51.50000 193.000
51.54500 239.000
51.59000 280.000
51.63500 303.000
51.68000 342.000
51.72500 362.000
51.77000 320.000
51.81500 266.000
51.86000 245.000
51.90500 195.000
51.95000 195.000
51.99500 137.000
52.04000 143.000
52.08500 144.000
52.13000 143.000
52.17500 127.000
52.22000 128.000
52.26500 121.000
52.31000 117.000
52.35500 116.000
52.40000 112.000
52.44500 116.000
52.49000 120.000
52.53500 107.000
52.58000 103.000
52.62500 104.000
52.67000 121.000
52.71500 102.000
52.76000 113.000
52.80500 108.000
52.85000 113.000
52.89500 108.000
52.94000 115.000
52.98500 110.000
53.03000 116.000
53.07500 100.000
53.12000 115.000
53.16500 112.000
53.21000 121.000
53.25500 121.000
53.30000 116.000
53.34500 115.000
53.39000 122.000
53.43500 109.000
53.48000 109.000
53.52500 101.000
53.57000 109.000
53.61500 111.000
53.66000 104.000
53.70500 120.000
53.75000 104.000
53.79500 107.000
53.84000 107.000
53.88500 93.000
53.93000 102.000
53.97500 89.000
54.02000 106.000
54.06500 93.000
54.11000 92.000
54.15500 91.000
54.20000 97.000
54.24500 143.000
54.29000 167.000
54.33500 280.000
54.38000 387.000
54.42500 458.000
54.47000 392.000
54.51500 199.000
54.56000 145.000
54.60500 120.000
54.65000 113.000
54.69500 114.000
54.74000 111.000
54.78500 110.000
54.83000 116.000
54.87500 104.000
54.92000 105.000
54.96500 100.000
55.01000 106.000
55.05500 79.000
55.10000 105.000
55.14500 95.000
55.19000 95.000
55.23500 108.000
55.28000 102.000
55.32500 124.000
55.37000 102.000
55.41500 91.000
55.46000 97.000
55.50500 95.000
55.55000 111.000
55.59500 112.000
55.64000 115.000
55.68500 118.000
55.73000 120.000
55.77500 136.000
55.82000 121.000
55.86500 99.000
55.91000 111.000
55.95500 112.000
56.00000 130.000
56.04500 137.000
56.09000 151.000
56.13500 133.000
56.18000 167.000
56.22500 147.000
56.27000 181.000
56.31500 198.000
56.36000 187.000
56.40500 193.000
56.45000 184.000
56.49500 185.000
56.54000 161.000
56.58500 159.000
56.63000 147.000
56.67500 136.000
56.72000 121.000
56.76500 143.000
56.81000 115.000
56.85500 106.000
56.90000 117.000
56.94500 110.000
56.99000 117.000
57.03500 109.000
57.08000 114.000
57.12500 123.000
57.17000 131.000
57.21500 101.000
57.26000 115.000
57.30500 121.000
57.35000 142.000
57.39500 164.000
57.44000 191.000
57.48500 204.000
57.53000 169.000
57.57500 143.000
57.62000 125.000
57.66500 125.000
57.71000 134.000
57.75500 140.000
57.80000 137.000
57.84500 134.000
57.89000 140.000
57.93500 147.000
57.98000 136.000
58.02500 133.000
58.07000 131.000
58.11500 123.000
58.16000 123.000
58.20500 117.000
58.25000 115.000
58.29500 107.000
58.34000 113.000
58.38500 123.000
58.43000 127.000
58.47500 97.000
58.52000 97.000
58.56500 92.000
58.61000 102.000
58.65500 83.000
58.70000 90.000
58.74500 99.000
58.79000 110.000
58.83500 100.000
58.88000 98.000
58.92500 99.000
58.97000 97.000
59.01500 105.000
59.06000 97.000
59.10500 99.000
59.15000 108.000
59.19500 96.000
59.24000 92.000
59.28500 107.000
59.33000 89.000
59.37500 89.000
59.42000 82.000
59.46500 91.000
59.51000 90.000
59.55500 88.000
59.60000 90.000
59.64500 90.000
59.69000 74.000
59.73500 101.000
59.78000 96.000
59.82500 104.000
59.87000 89.000
59.91500 87.000
59.96000 101.000
60.00500 93.000
60.05000 96.000
60.09500 110.000
60.14000 92.000
60.18500 100.000
60.23000 87.000
60.27500 104.000
60.32000 98.000
60.36500 100.000
60.41000 104.000
60.45500 94.000
60.50000 96.000
60.54500 118.000
60.59000 93.000
60.63500 107.000
60.68000 112.000
60.72500 104.000
60.77000 111.000
60.81500 110.000
60.86000 123.000
60.90500 109.000
60.95000 107.000
60.99500 113.000
61.04000 97.000
61.08500 117.000
61.13000 107.000
61.17500 97.000
61.22000 97.000
61.26500 91.000
61.31000 102.000
61.35500 97.000
61.40000 99.000
61.44500 95.000
61.49000 97.000
61.53500 103.000
61.58000 112.000
61.62500 115.000
61.67000 117.000
61.71500 115.000
61.76000 124.000
61.80500 106.000
61.85000 108.000
61.89500 123.000
61.94000 96.000
61.98500 132.000