File: ISoD/xrd_data/HSC073_range_1.xy
2.00000 6.000
2.04500 1.000
2.09000 3.000
2.13500 3.000
2.18000 2.000
2.22500 1.000
2.27000 5.000
2.31500 6.000
2.36000 4.000
2.40500 5.000
2.45000 3.000
2.49500 1.000
2.54000 3.000
2.58500 5.000
2.63000 2.000
2.67500 3.000
2.72000 1.000
2.76500 3.000
2.81000 5.000
2.85500 6.000
2.90000 4.000
2.94500 1.000
2.99000 3.000
3.03500 4.000
3.08000 2.000
3.12500 5.000
3.17000 12.000
3.21500 28.000
3.26000 62.000
3.30500 116.000
3.35000 183.000
3.39500 202.000
3.44000 188.000
3.48500 211.000
3.53000 225.000
3.57500 215.000
3.62000 227.000
3.66500 212.000
3.71000 197.000
3.75500 223.000
3.80000 213.000
3.84500 226.000
3.89000 231.000
3.93500 228.000
3.98000 215.000
4.02500 261.000
4.07000 258.000
4.11500 238.000
4.16000 239.000
4.20500 259.000
4.25000 256.000
4.29500 268.000
4.34000 259.000
4.38500 265.000
4.43000 273.000
4.47500 267.000
4.52000 257.000
4.56500 266.000
4.61000 274.000
4.65500 279.000
4.70000 279.000
4.74500 290.000
4.79000 262.000
4.83500 274.000
4.88000 301.000
4.92500 283.000
4.97000 308.000
5.01500 311.000
5.06000 316.000
5.10500 282.000
5.15000 307.000
5.19500 340.000
5.24000 301.000
5.28500 277.000
5.33000 328.000
5.37500 291.000
5.42000 314.000
5.46500 319.000
5.51000 334.000
5.55500 353.000
5.60000 298.000
5.64500 343.000
5.69000 337.000
5.73500 324.000
5.78000 308.000
5.82500 320.000
5.87000 321.000
5.91500 301.000
5.96000 315.000
6.00500 305.000
6.05000 338.000
6.09500 325.000
6.14000 338.000
6.18500 347.000
6.23000 354.000
6.27500 333.000
6.32000 369.000
6.36500 353.000
6.41000 352.000
6.45500 361.000
6.50000 366.000
6.54500 381.000
6.59000 392.000
6.63500 370.000
6.68000 350.000
6.72500 359.000
6.77000 388.000
6.81500 374.000
6.86000 354.000
6.90500 368.000
6.95000 365.000
6.99500 362.000
7.04000 393.000
7.08500 364.000
7.13000 376.000
7.17500 376.000
7.22000 367.000
7.26500 363.000
7.31000 377.000
7.35500 354.000
7.40000 358.000
7.44500 371.000
7.49000 364.000
7.53500 366.000
7.58000 364.000
7.62500 372.000
7.67000 368.000
7.71500 364.000
7.76000 362.000
7.80500 422.000
7.85000 389.000
7.89500 377.000
7.94000 385.000
7.98500 396.000
8.03000 410.000
8.07500 400.000
8.12000 401.000
8.16500 403.000
8.21000 400.000
8.25500 392.000
8.30000 416.000
8.34500 394.000
8.39000 410.000
8.43500 419.000
8.48000 412.000
8.52500 376.000
8.57000 386.000
8.61500 380.000
8.66000 389.000
8.70500 379.000
8.75000 385.000
8.79500 387.000
8.84000 402.000
8.88500 410.000
8.93000 390.000
8.97500 411.000
9.02000 403.000
9.06500 391.000
9.11000 375.000
9.15500 426.000
9.20000 381.000
9.24500 409.000
9.29000 387.000
9.33500 428.000
9.38000 404.000
9.42500 379.000
9.47000 383.000
9.51500 430.000
9.56000 431.000
9.60500 413.000
9.65000 415.000
9.69500 410.000
9.74000 417.000
9.78500 387.000
9.83000 403.000
9.87500 401.000
9.92000 405.000
9.96500 410.000
10.01000 413.000
10.05500 399.000
10.10000 401.000
10.14500 381.000
10.19000 416.000
10.23500 453.000
10.28000 401.000
10.32500 396.000
10.37000 402.000
10.41500 399.000
10.46000 420.000
10.50500 441.000
10.55000 409.000
10.59500 406.000
10.64000 404.000
10.68500 400.000
10.73000 427.000
10.77500 443.000
10.82000 424.000
10.86500 439.000
10.91000 438.000
10.95500 459.000
11.00000 427.000
11.04500 392.000
11.09000 441.000
11.13500 438.000
11.18000 451.000
11.22500 419.000
11.27000 398.000
11.31500 444.000
11.36000 449.000
11.40500 432.000
11.45000 424.000
11.49500 431.000
11.54000 424.000
11.58500 454.000
11.63000 448.000
11.67500 419.000
11.72000 407.000
11.76500 428.000
11.81000 444.000
11.85500 437.000
11.90000 445.000
11.94500 468.000
11.99000 428.000
12.03500 422.000
12.08000 439.000
12.12500 429.000
12.17000 417.000
12.21500 421.000
12.26000 439.000
12.30500 438.000
12.35000 434.000
12.39500 438.000
12.44000 414.000
12.48500 467.000
12.53000 432.000
12.57500 446.000
12.62000 460.000
12.66500 449.000
12.71000 422.000
12.75500 457.000
12.80000 470.000
12.84500 451.000
12.89000 444.000
12.93500 440.000
12.98000 441.000
13.02500 474.000
13.07000 448.000
13.11500 447.000
13.16000 455.000
13.20500 457.000
13.25000 462.000
13.29500 436.000
13.34000 484.000
13.38500 452.000
13.43000 481.000
13.47500 467.000
13.52000 430.000
13.56500 460.000
13.61000 498.000
13.65500 448.000
13.70000 469.000
13.74500 458.000
13.79000 471.000
13.83500 469.000
13.88000 449.000
13.92500 447.000
13.97000 456.000
14.01500 471.000
14.06000 477.000
14.10500 482.000
14.15000 446.000
14.19500 476.000
14.24000 462.000
14.28500 496.000
14.33000 464.000
14.37500 497.000
14.42000 468.000
14.46500 452.000
14.51000 479.000
14.55500 470.000
14.60000 475.000
14.64500 442.000
14.69000 475.000
14.73500 456.000
14.78000 479.000
14.82500 464.000
14.87000 455.000
14.91500 467.000
14.96000 461.000
15.00500 467.000
15.05000 474.000
15.09500 458.000
15.14000 453.000
15.18500 479.000
15.23000 478.000
15.27500 476.000
15.32000 484.000
15.36500 462.000
15.41000 501.000
15.45500 465.000
15.50000 489.000
15.54500 447.000
15.59000 459.000
15.63500 486.000
15.68000 473.000
15.72500 495.000
15.77000 440.000
15.81500 492.000
15.86000 463.000
15.90500 474.000
15.95000 486.000
15.99500 470.000
16.04000 502.000
16.08500 469.000
16.13000 441.000
16.17500 456.000
16.22000 503.000
16.26500 499.000
16.31000 508.000
16.35500 486.000
16.40000 505.000
16.44500 450.000
16.49000 510.000
16.53500 490.000
16.58000 436.000
16.62500 459.000
16.67000 509.000
16.71500 494.000
16.76000 506.000
16.80500 492.000
16.85000 507.000
16.89500 467.000
16.94000 491.000
16.98500 503.000
17.03000 515.000
17.07500 490.000
17.12000 484.000
17.16500 466.000
17.21000 504.000
17.25500 502.000
17.30000 474.000
17.34500 494.000
17.39000 479.000
17.43500 503.000
17.48000 479.000
17.52500 513.000
17.57000 466.000
17.61500 466.000
17.66000 506.000
17.70500 508.000
17.75000 512.000
17.79500 516.000
17.84000 497.000
17.88500 469.000
17.93000 462.000
17.97500 492.000
18.02000 508.000
18.06500 518.000
18.11000 479.000
18.15500 537.000
18.20000 474.000
18.24500 489.000
18.29000 518.000
18.33500 514.000
18.38000 528.000
18.42500 496.000
18.47000 514.000
18.51500 534.000
18.56000 497.000
18.60500 506.000
18.65000 537.000
18.69500 478.000
18.74000 510.000
18.78500 535.000
18.83000 521.000
18.87500 515.000
18.92000 501.000
18.96500 508.000
19.01000 544.000
19.05500 509.000
19.10000 513.000
19.14500 485.000
19.19000 499.000
19.23500 559.000
19.28000 498.000
19.32500 518.000
19.37000 531.000
19.41500 521.000
19.46000 538.000
19.50500 507.000
19.55000 517.000
19.59500 515.000
19.64000 506.000
19.68500 502.000
19.73000 523.000
19.77500 492.000
19.82000 501.000
19.86500 501.000
19.91000 527.000
19.95500 525.000
20.00000 524.000
20.04500 506.000
20.09000 504.000
20.13500 563.000
20.18000 541.000
20.22500 535.000
20.27000 551.000
20.31500 530.000
20.36000 517.000
20.40500 563.000
20.45000 482.000
20.49500 516.000
20.54000 527.000
20.58500 542.000
20.63000 544.000
20.67500 532.000
20.72000 523.000
20.76500 527.000
20.81000 513.000
20.85500 519.000
20.90000 505.000
20.94500 557.000
20.99000 579.000
21.03500 509.000
21.08000 524.000
21.12500 531.000
21.17000 515.000
21.21500 521.000
21.26000 538.000
21.30500 528.000
21.35000 541.000
21.39500 539.000
21.44000 535.000
21.48500 534.000
21.53000 507.000
21.57500 492.000
21.62000 526.000
21.66500 512.000
21.71000 541.000
21.75500 547.000
21.80000 532.000
21.84500 547.000
21.89000 555.000
21.93500 523.000
21.98000 520.000
22.02500 505.000
22.07000 563.000
22.11500 521.000
22.16000 536.000
22.20500 522.000
22.25000 552.000
22.29500 495.000
22.34000 513.000
22.38500 552.000
22.43000 550.000
22.47500 522.000
22.52000 517.000
22.56500 530.000
22.61000 557.000
22.65500 549.000
22.70000 518.000
22.74500 508.000
22.79000 545.000
22.83500 532.000
22.88000 516.000
22.92500 546.000
22.97000 527.000
23.01500 541.000
23.06000 516.000
23.10500 520.000
23.15000 497.000
23.19500 522.000
23.24000 509.000
23.28500 495.000
23.33000 508.000
23.37500 520.000
23.42000 535.000
23.46500 527.000
23.51000 562.000
23.55500 523.000
23.60000 516.000
23.64500 516.000
23.69000 529.000
23.73500 501.000
23.78000 524.000
23.82500 491.000
23.87000 495.000
23.91500 497.000
23.96000 496.000
24.00500 523.000
24.05000 523.000
24.09500 528.000
24.14000 476.000
24.18500 487.000
24.23000 523.000
24.27500 522.000
24.32000 505.000
24.36500 500.000
24.41000 521.000
24.45500 512.000
24.50000 497.000
24.54500 496.000
24.59000 520.000
24.63500 507.000
24.68000 505.000
24.72500 525.000
24.77000 515.000
24.81500 481.000
24.86000 468.000
24.90500 504.000
24.95000 529.000
24.99500 484.000
25.04000 450.000
25.08500 503.000
25.13000 492.000
25.17500 489.000
25.22000 471.000
25.26500 470.000
25.31000 492.000
25.35500 520.000
25.40000 474.000
25.44500 479.000
25.49000 504.000
25.53500 497.000
25.58000 485.000
25.62500 461.000
25.67000 479.000
25.71500 486.000
25.76000 482.000
25.80500 443.000
25.85000 454.000
25.89500 442.000
25.94000 476.000
25.98500 461.000
26.03000 474.000
26.07500 467.000
26.12000 469.000
26.16500 488.000
26.21000 461.000
26.25500 447.000
26.30000 465.000
26.34500 493.000
26.39000 476.000
26.43500 457.000
26.48000 468.000
26.52500 448.000
26.57000 441.000
26.61500 472.000
26.66000 445.000
26.70500 433.000
26.75000 444.000
26.79500 458.000
26.84000 454.000
26.88500 448.000
26.93000 457.000
26.97500 460.000
27.02000 402.000
27.06500 400.000
27.11000 416.000
27.15500 451.000
27.20000 452.000
27.24500 434.000
27.29000 471.000
27.33500 418.000
27.38000 413.000
27.42500 413.000
27.47000 405.000
27.51500 433.000
27.56000 435.000
27.60500 425.000
27.65000 418.000
27.69500 407.000
27.74000 402.000
27.78500 432.000
27.83000 401.000
27.87500 412.000
27.92000 435.000
27.96500 425.000
28.01000 426.000
28.05500 456.000
28.10000 408.000
28.14500 393.000
28.19000 392.000
28.23500 407.000
28.28000 413.000
28.32500 428.000
28.37000 404.000
28.41500 421.000
28.46000 402.000
28.50500 403.000
28.55000 398.000
28.59500 409.000
28.64000 378.000
28.68500 405.000
28.73000 418.000
28.77500 406.000
28.82000 389.000
28.86500 378.000
28.91000 403.000
28.95500 365.000
29.00000 407.000
29.04500 392.000
29.09000 380.000
29.13500 412.000
29.18000 393.000
29.22500 367.000
29.27000 379.000
29.31500 392.000
29.36000 400.000
29.40500 408.000
29.45000 369.000
29.49500 411.000
29.54000 394.000
29.58500 389.000
29.63000 350.000
29.67500 403.000
29.72000 411.000
29.76500 393.000
29.81000 367.000
29.85500 375.000
29.90000 353.000
29.94500 343.000
29.99000 374.000
30.03500 362.000
30.08000 339.000
30.12500 396.000
30.17000 392.000
30.21500 352.000
30.26000 369.000
30.30500 385.000
30.35000 377.000
30.39500 380.000
30.44000 341.000
30.48500 362.000
30.53000 371.000
30.57500 362.000
30.62000 359.000
30.66500 350.000
30.71000 362.000
30.75500 366.000
30.80000 347.000
30.84500 346.000
30.89000 351.000
30.93500 337.000
30.98000 365.000
31.02500 345.000
31.07000 356.000
31.11500 350.000
31.16000 346.000
31.20500 350.000
31.25000 322.000
31.29500 351.000
31.34000 345.000
31.38500 363.000
31.43000 363.000
31.47500 343.000
31.52000 301.000
31.56500 310.000
31.61000 350.000
31.65500 339.000
31.70000 344.000
31.74500 344.000
31.79000 325.000
31.83500 333.000
31.88000 328.000
31.92500 317.000
31.97000 326.000
32.01500 323.000
32.06000 320.000
32.10500 338.000
32.15000 330.000
32.19500 314.000
32.24000 315.000
32.28500 332.000
32.33000 296.000
32.37500 318.000
32.42000 325.000
32.46500 326.000
32.51000 335.000
32.55500 332.000
32.60000 284.000
32.64500 313.000
32.69000 311.000
32.73500 295.000
32.78000 294.000
32.82500 296.000
32.87000 300.000
32.91500 317.000
32.96000 290.000
33.00500 308.000
33.05000 276.000
33.09500 299.000
33.14000 312.000
33.18500 287.000
33.23000 297.000
33.27500 290.000
33.32000 300.000
33.36500 296.000
33.41000 288.000
33.45500 294.000
33.50000 284.000
33.54500 265.000
33.59000 281.000
33.63500 266.000
33.68000 285.000
33.72500 298.000
33.77000 237.000
33.81500 276.000
33.86000 275.000
33.90500 279.000
33.95000 259.000
33.99500 285.000
34.04000 292.000
34.08500 272.000
34.13000 265.000
34.17500 274.000
34.22000 272.000
34.26500 265.000
34.31000 274.000
34.35500 268.000
34.40000 265.000
34.44500 272.000
34.49000 251.000
34.53500 256.000
34.58000 268.000
34.62500 262.000
34.67000 260.000
34.71500 238.000
34.76000 260.000
34.80500 264.000
34.85000 259.000
34.89500 239.000
34.94000 272.000
34.98500 243.000
35.03000 264.000
35.07500 249.000
35.12000 254.000
35.16500 247.000
35.21000 239.000
35.25500 243.000
35.30000 249.000
35.34500 231.000
35.39000 273.000
35.43500 251.000
35.48000 229.000
35.52500 239.000
35.57000 218.000
35.61500 226.000
35.66000 217.000
35.70500 260.000
35.75000 256.000
35.79500 237.000
35.84000 240.000
35.88500 226.000
35.93000 229.000
35.97500 243.000
36.02000 241.000
36.06500 221.000
36.11000 237.000
36.15500 227.000
36.20000 219.000
36.24500 225.000
36.29000 235.000
36.33500 221.000
36.38000 218.000
36.42500 238.000
36.47000 211.000
36.51500 234.000
36.56000 226.000
36.60500 233.000
36.65000 227.000
36.69500 225.000
36.74000 222.000
36.78500 209.000
36.83000 234.000
36.87500 221.000
36.92000 214.000
36.96500 208.000
37.01000 227.000
37.05500 228.000
37.10000 227.000
37.14500 199.000
37.19000 235.000
37.23500 199.000
37.28000 185.000
37.32500 223.000
37.37000 198.000
37.41500 195.000
37.46000 220.000
37.50500 214.000
37.55000 217.000
37.59500 204.000
37.64000 207.000
37.68500 206.000
37.73000 197.000
37.77500 208.000
37.82000 210.000
37.86500 193.000
37.91000 199.000
37.95500 222.000
38.00000 203.000
38.04500 212.000
38.09000 227.000
38.13500 210.000
38.18000 221.000
38.22500 207.000
38.27000 178.000
38.31500 186.000
38.36000 223.000
38.40500 202.000
38.45000 218.000
38.49500 187.000
38.54000 189.000
38.58500 224.000
38.63000 200.000
38.67500 197.000
38.72000 203.000
38.76500 214.000
38.81000 184.000
38.85500 214.000
38.90000 217.000
38.94500 205.000
38.99000 200.000
39.03500 198.000
39.08000 187.000
39.12500 189.000
39.17000 213.000
39.21500 192.000
39.26000 191.000
39.30500 194.000
39.35000 189.000
39.39500 209.000
39.44000 193.000
39.48500 198.000
39.53000 186.000
39.57500 180.000
39.62000 185.000
39.66500 198.000
39.71000 191.000
39.75500 191.000
39.80000 176.000
39.84500 213.000
39.89000 186.000
39.93500 195.000
39.98000 190.000
40.02500 187.000
40.07000 191.000
40.11500 186.000
40.16000 186.000
40.20500 193.000
40.25000 199.000
40.29500 172.000
40.34000 196.000
40.38500 183.000
40.43000 189.000
40.47500 185.000
40.52000 202.000
40.56500 186.000
40.61000 208.000
40.65500 182.000
40.70000 180.000
40.74500 165.000
40.79000 193.000
40.83500 193.000
40.88000 165.000
40.92500 197.000
40.97000 189.000
41.01500 184.000
41.06000 187.000
41.10500 172.000
41.15000 180.000
41.19500 190.000
41.24000 184.000
41.28500 164.000
41.33000 202.000
41.37500 171.000
41.42000 183.000
41.46500 188.000
41.51000 183.000
41.55500 187.000
41.60000 178.000
41.64500 182.000
41.69000 182.000
41.73500 196.000
41.78000 185.000
41.82500 204.000
41.87000 165.000
41.91500 182.000
41.96000 173.000
42.00500 199.000
42.05000 172.000
42.09500 184.000
42.14000 184.000
42.18500 173.000
42.23000 177.000
42.27500 159.000
42.32000 182.000
42.36500 160.000
42.41000 159.000
42.45500 183.000
42.50000 173.000
42.54500 161.000
42.59000 171.000
42.63500 175.000
42.68000 171.000
42.72500 182.000
42.77000 171.000
42.81500 191.000
42.86000 165.000
42.90500 180.000
42.95000 168.000
42.99500 196.000
43.04000 179.000
43.08500 173.000
43.13000 178.000
43.17500 143.000
43.22000 171.000
43.26500 165.000
43.31000 181.000
43.35500 171.000
43.40000 192.000
43.44500 194.000
43.49000 173.000
43.53500 185.000
43.58000 183.000
43.62500 184.000
43.67000 163.000
43.71500 169.000
43.76000 174.000
43.80500 160.000
43.85000 186.000
43.89500 184.000
43.94000 178.000
43.98500 199.000
44.03000 187.000
44.07500 177.000
44.12000 191.000
44.16500 183.000
44.21000 164.000
44.25500 190.000
44.30000 171.000
44.34500 179.000
44.39000 176.000
44.43500 159.000
44.48000 151.000
44.52500 163.000
44.57000 179.000
44.61500 160.000
44.66000 178.000
44.70500 193.000
44.75000 171.000
44.79500 173.000
44.84000 163.000
44.88500 162.000
44.93000 177.000
44.97500 176.000
45.02000 166.000
45.06500 166.000
45.11000 159.000
45.15500 186.000
45.20000 174.000
45.24500 159.000
45.29000 166.000
45.33500 153.000
45.38000 142.000
45.42500 167.000
45.47000 164.000
45.51500 173.000
45.56000 182.000
45.60500 182.000
45.65000 161.000
45.69500 167.000
45.74000 179.000
45.78500 157.000
45.83000 153.000
45.87500 159.000
45.92000 160.000
45.96500 156.000
46.01000 176.000
46.05500 148.000
46.10000 157.000
46.14500 157.000
46.19000 165.000
46.23500 160.000
46.28000 175.000
46.32500 160.000
46.37000 165.000
46.41500 159.000
46.46000 154.000
46.50500 175.000
46.55000 163.000
46.59500 144.000
46.64000 162.000
46.68500 158.000
46.73000 155.000
46.77500 153.000
46.82000 141.000
46.86500 171.000
46.91000 151.000
46.95500 172.000
47.00000 172.000
47.04500 163.000
47.09000 153.000
47.13500 157.000
47.18000 164.000
47.22500 161.000
47.27000 151.000
47.31500 163.000
47.36000 166.000
47.40500 147.000
47.45000 148.000
47.49500 153.000
47.54000 161.000
47.58500 151.000
47.63000 163.000
47.67500 176.000
47.72000 157.000
47.76500 147.000
47.81000 155.000
47.85500 162.000
47.90000 141.000
47.94500 143.000
47.99000 156.000
48.03500 149.000
48.08000 171.000
48.12500 155.000
48.17000 178.000
48.21500 166.000
48.26000 147.000
48.30500 148.000
48.35000 147.000
48.39500 133.000
48.44000 152.000
48.48500 171.000
48.53000 148.000
48.57500 152.000
48.62000 145.000
48.66500 142.000
48.71000 167.000
48.75500 145.000
48.80000 148.000
48.84500 143.000
48.89000 157.000
48.93500 160.000
48.98000 141.000
49.02500 150.000
49.07000 145.000
49.11500 122.000
49.16000 126.000
49.20500 149.000
49.25000 158.000
49.29500 142.000
49.34000 163.000
49.38500 154.000
49.43000 149.000
49.47500 165.000
49.52000 140.000
49.56500 150.000
49.61000 155.000
49.65500 142.000
49.70000 131.000
49.74500 145.000
49.79000 143.000
49.83500 142.000
49.88000 155.000
49.92500 145.000
49.97000 143.000
50.01500 147.000
50.06000 150.000
50.10500 129.000
50.15000 140.000
50.19500 136.000
50.24000 153.000
50.28500 144.000
50.33000 134.000
50.37500 134.000
50.42000 128.000
50.46500 149.000
50.51000 125.000
50.55500 153.000
50.60000 142.000
50.64500 131.000
50.69000 159.000
50.73500 131.000
50.78000 159.000
50.82500 133.000
50.87000 141.000
50.91500 142.000
50.96000 156.000
51.00500 140.000
51.05000 134.000
51.09500 130.000
51.14000 124.000
51.18500 138.000
51.23000 145.000
51.27500 128.000
51.32000 136.000
51.36500 136.000
51.41000 126.000
51.45500 124.000
51.50000 131.000
51.54500 131.000
51.59000 134.000
51.63500 142.000
51.68000 146.000
51.72500 148.000
51.77000 144.000
51.81500 135.000
51.86000 129.000
51.90500 137.000
51.95000 136.000
51.99500 149.000
52.04000 134.000
52.08500 134.000
52.13000 134.000
52.17500 132.000
52.22000 141.000
52.26500 128.000
52.31000 135.000
52.35500 134.000
52.40000 132.000
52.44500 150.000
52.49000 143.000
52.53500 148.000
52.58000 139.000
52.62500 139.000
52.67000 141.000
52.71500 142.000
52.76000 112.000
52.80500 133.000
52.85000 120.000
52.89500 127.000
52.94000 133.000
52.98500 128.000
53.03000 158.000
53.07500 130.000
53.12000 117.000
53.16500 133.000
53.21000 145.000
53.25500 123.000
53.30000 121.000
53.34500 122.000
53.39000 136.000
53.43500 131.000
53.48000 130.000
53.52500 134.000
53.57000 141.000
53.61500 128.000
53.66000 149.000
53.70500 107.000
53.75000 144.000
53.79500 139.000
53.84000 143.000
53.88500 118.000
53.93000 146.000
53.97500 129.000
54.02000 137.000
54.06500 124.000
54.11000 134.000
54.15500 137.000
54.20000 137.000
54.24500 121.000
54.29000 112.000
54.33500 112.000
54.38000 132.000
54.42500 139.000
54.47000 129.000
54.51500 126.000
54.56000 134.000
54.60500 137.000
54.65000 134.000
54.69500 122.000
54.74000 136.000
54.78500 137.000
54.83000 116.000
54.87500 129.000
54.92000 119.000
54.96500 122.000
55.01000 118.000
55.05500 114.000
55.10000 135.000
55.14500 119.000
55.19000 114.000
55.23500 126.000
55.28000 126.000
55.32500 135.000
55.37000 127.000
55.41500 133.000
55.46000 124.000
55.50500 127.000
55.55000 142.000
55.59500 141.000
55.64000 124.000
55.68500 117.000
55.73000 124.000
55.77500 136.000
55.82000 120.000
55.86500 120.000
55.91000 121.000
55.95500 134.000
56.00000 126.000
56.04500 135.000
56.09000 134.000
56.13500 129.000
56.18000 121.000
56.22500 125.000
56.27000 130.000
56.31500 121.000
56.36000 134.000
56.40500 135.000
56.45000 103.000
56.49500 141.000
56.54000 122.000
56.58500 119.000
56.63000 129.000
56.67500 117.000
56.72000 119.000
56.76500 123.000
56.81000 150.000
56.85500 115.000
56.90000 128.000
56.94500 128.000
56.99000 117.000
57.03500 122.000
57.08000 136.000
57.12500 123.000
57.17000 128.000
57.21500 125.000
57.26000 131.000
57.30500 111.000
57.35000 121.000
57.39500 137.000
57.44000 127.000
57.48500 138.000
57.53000 140.000
57.57500 120.000
57.62000 122.000
57.66500 144.000
57.71000 115.000
57.75500 113.000
57.80000 124.000
57.84500 115.000
57.89000 131.000
57.93500 140.000
57.98000 118.000
58.02500 138.000
58.07000 133.000
58.11500 124.000
58.16000 113.000
58.20500 120.000
58.25000 121.000
58.29500 123.000
58.34000 130.000
58.38500 134.000
58.43000 115.000
58.47500 127.000
58.52000 141.000
58.56500 113.000
58.61000 124.000
58.65500 118.000
58.70000 109.000
58.74500 111.000
58.79000 119.000
58.83500 128.000
58.88000 107.000
58.92500 125.000
58.97000 126.000
59.01500 129.000
59.06000 119.000
59.10500 109.000
59.15000 121.000
59.19500 113.000
59.24000 117.000
59.28500 120.000
59.33000 95.000
59.37500 123.000
59.42000 137.000
59.46500 116.000
59.51000 123.000
59.55500 122.000
59.60000 106.000
59.64500 114.000
59.69000 134.000
59.73500 140.000
59.78000 125.000
59.82500 112.000
59.87000 124.000
59.91500 121.000
59.96000 122.000
60.00500 128.000
60.05000 115.000
60.09500 101.000
60.14000 107.000
60.18500 104.000
60.23000 131.000
60.27500 119.000
60.32000 132.000
60.36500 108.000
60.41000 134.000
60.45500 120.000
60.50000 128.000
60.54500 115.000
60.59000 106.000
60.63500 117.000
60.68000 117.000
60.72500 122.000
60.77000 107.000
60.81500 134.000
60.86000 105.000
60.90500 132.000
60.95000 118.000
60.99500 117.000
61.04000 124.000
61.08500 120.000
61.13000 139.000
61.17500 94.000
61.22000 110.000
61.26500 110.000
61.31000 127.000
61.35500 127.000
61.40000 125.000
61.44500 127.000
61.49000 111.000
61.53500 128.000
61.58000 105.000
61.62500 124.000
61.67000 120.000
61.71500 103.000
61.76000 125.000
61.80500 121.000
61.85000 112.000
61.89500 100.000
61.94000 117.000
61.98500 98.000