File: ISoD/xrd_data/HSC052.xy
2.00000 9.000
2.04500 14.000
2.09000 12.000
2.13500 12.000
2.18000 5.000
2.22500 9.000
2.27000 11.000
2.31500 14.000
2.36000 14.000
2.40500 15.000
2.45000 7.000
2.49500 6.000
2.54000 10.000
2.58500 13.000
2.63000 9.000
2.67500 8.000
2.72000 10.000
2.76500 9.000
2.81000 9.000
2.85500 9.000
2.90000 12.000
2.94500 10.000
2.99000 9.000
3.03500 21.000
3.08000 55.000
3.12500 240.000
3.17000 583.000
3.21500 894.000
3.26000 1015.000
3.30500 1015.000
3.35000 976.000
3.39500 949.000
3.44000 955.000
3.48500 927.000
3.53000 912.000
3.57500 874.000
3.62000 884.000
3.66500 889.000
3.71000 903.000
3.75500 852.000
3.80000 869.000
3.84500 829.000
3.89000 876.000
3.93500 829.000
3.98000 819.000
4.02500 828.000
4.07000 800.000
4.11500 798.000
4.16000 794.000
4.20500 789.000
4.25000 841.000
4.29500 782.000
4.34000 821.000
4.38500 835.000
4.43000 842.000
4.47500 834.000
4.52000 834.000
4.56500 854.000
4.61000 832.000
4.65500 809.000
4.70000 812.000
4.74500 747.000
4.79000 802.000
4.83500 824.000
4.88000 797.000
4.92500 795.000
4.97000 808.000
5.01500 803.000
5.06000 820.000
5.10500 834.000
5.15000 804.000
5.19500 793.000
5.24000 815.000
5.28500 826.000
5.33000 783.000
5.37500 819.000
5.42000 835.000
5.46500 829.000
5.51000 835.000
5.55500 827.000
5.60000 797.000
5.64500 816.000
5.69000 826.000
5.73500 812.000
5.78000 810.000
5.82500 843.000
5.87000 809.000
5.91500 818.000
5.96000 824.000
6.00500 850.000
6.05000 843.000
6.09500 845.000
6.14000 836.000
6.18500 836.000
6.23000 842.000
6.27500 827.000
6.32000 844.000
6.36500 806.000
6.41000 809.000
6.45500 882.000
6.50000 879.000
6.54500 901.000
6.59000 903.000
6.63500 832.000
6.68000 840.000
6.72500 869.000
6.77000 863.000
6.81500 811.000
6.86000 823.000
6.90500 893.000
6.95000 883.000
6.99500 865.000
7.04000 865.000
7.08500 906.000
7.13000 907.000
7.17500 922.000
7.22000 892.000
7.26500 871.000
7.31000 883.000
7.35500 887.000
7.40000 892.000
7.44500 908.000
7.49000 927.000
7.53500 886.000
7.58000 864.000
7.62500 914.000
7.67000 863.000
7.71500 938.000
7.76000 907.000
7.80500 897.000
7.85000 914.000
7.89500 899.000
7.94000 901.000
7.98500 942.000
8.03000 916.000
8.07500 927.000
8.12000 866.000
8.16500 905.000
8.21000 917.000
8.25500 916.000
8.30000 900.000
8.34500 895.000
8.39000 975.000
8.43500 991.000
8.48000 915.000
8.52500 911.000
8.57000 919.000
8.61500 931.000
8.66000 930.000
8.70500 931.000
8.75000 930.000
8.79500 946.000
8.84000 915.000
8.88500 945.000
8.93000 932.000
8.97500 929.000
9.02000 932.000
9.06500 951.000
9.11000 935.000
9.15500 992.000
9.20000 948.000
9.24500 967.000
9.29000 962.000
9.33500 942.000
9.38000 959.000
9.42500 1014.000
9.47000 958.000
9.51500 990.000
9.56000 980.000
9.60500 981.000
9.65000 1023.000
9.69500 968.000
9.74000 960.000
9.78500 1027.000
9.83000 1003.000
9.87500 980.000
9.92000 1010.000
9.96500 994.000
10.01000 1055.000
10.05500 968.000
10.10000 1028.000
10.14500 999.000
10.19000 1043.000
10.23500 1041.000
10.28000 1009.000
10.32500 995.000
10.37000 988.000
10.41500 1016.000
10.46000 1047.000
10.50500 1000.000
10.55000 1050.000
10.59500 1030.000
10.64000 1050.000
10.68500 1059.000
10.73000 1047.000
10.77500 1014.000
10.82000 1037.000
10.86500 993.000
10.91000 992.000
10.95500 1039.000
11.00000 1061.000
11.04500 1084.000
11.09000 1072.000
11.13500 1142.000
11.18000 1088.000
11.22500 1113.000
11.27000 1083.000
11.31500 1083.000
11.36000 1148.000
11.40500 1113.000
11.45000 1067.000
11.49500 1178.000
11.54000 1108.000
11.58500 1118.000
11.63000 1150.000
11.67500 1117.000
11.72000 1154.000
11.76500 1169.000
11.81000 1179.000
11.85500 1176.000
11.90000 1197.000
11.94500 1205.000
11.99000 1236.000
12.03500 1274.000
12.08000 1195.000
12.12500 1231.000
12.17000 1275.000
12.21500 1323.000
12.26000 1275.000
12.30500 1310.000
12.35000 1316.000
12.39500 1356.000
12.44000 1425.000
12.48500 1436.000
12.53000 1413.000
12.57500 1439.000
12.62000 1510.000
12.66500 1513.000
12.71000 1593.000
12.75500 1601.000
12.80000 1586.000
12.84500 1633.000
12.89000 1693.000
12.93500 1641.000
12.98000 1583.000
13.02500 1624.000
13.07000 1682.000
13.11500 1611.000
13.16000 1641.000
13.20500 1694.000
13.25000 1665.000
13.29500 1612.000
13.34000 1698.000
13.38500 1659.000
13.43000 1609.000
13.47500 1617.000
13.52000 1562.000
13.56500 1625.000
13.61000 1580.000
13.65500 1584.000
13.70000 1559.000
13.74500 1540.000
13.79000 1593.000
13.83500 1511.000
13.88000 1527.000
13.92500 1460.000
13.97000 1490.000
14.01500 1532.000
14.06000 1553.000
14.10500 1499.000
14.15000 1502.000
14.19500 1521.000
14.24000 1452.000
14.28500 1470.000
14.33000 1473.000
14.37500 1432.000
14.42000 1478.000
14.46500 1525.000
14.51000 1513.000
14.55500 1417.000
14.60000 1491.000
14.64500 1420.000
14.69000 1482.000
14.73500 1416.000
14.78000 1427.000
14.82500 1435.000
14.87000 1381.000
14.91500 1392.000
14.96000 1382.000
15.00500 1437.000
15.05000 1355.000
15.09500 1388.000
15.14000 1340.000
15.18500 1349.000
15.23000 1405.000
15.27500 1423.000
15.32000 1419.000
15.36500 1355.000
15.41000 1353.000
15.45500 1443.000
15.50000 1399.000
15.54500 1398.000
15.59000 1424.000
15.63500 1317.000
15.68000 1351.000
15.72500 1357.000
15.77000 1358.000
15.81500 1328.000
15.86000 1373.000
15.90500 1422.000
15.95000 1364.000
15.99500 1390.000
16.04000 1343.000
16.08500 1368.000
16.13000 1364.000
16.17500 1348.000
16.22000 1385.000
16.26500 1436.000
16.31000 1394.000
16.35500 1428.000
16.40000 1366.000
16.44500 1368.000
16.49000 1410.000
16.53500 1370.000
16.58000 1369.000
16.62500 1401.000
16.67000 1394.000
16.71500 1414.000
16.76000 1376.000
16.80500 1382.000
16.85000 1330.000
16.89500 1374.000
16.94000 1342.000
16.98500 1400.000
17.03000 1397.000
17.07500 1394.000
17.12000 1394.000
17.16500 1367.000
17.21000 1405.000
17.25500 1388.000
17.30000 1410.000
17.34500 1415.000
17.39000 1391.000
17.43500 1469.000
17.48000 1454.000
17.52500 1407.000
17.57000 1404.000
17.61500 1433.000
17.66000 1529.000
17.70500 1454.000
17.75000 1453.000
17.79500 1458.000
17.84000 1497.000
17.88500 1449.000
17.93000 1474.000
17.97500 1508.000
18.02000 1466.000
18.06500 1437.000
18.11000 1466.000
18.15500 1511.000
18.20000 1460.000
18.24500 1465.000
18.29000 1467.000
18.33500 1459.000
18.38000 1436.000
18.42500 1453.000
18.47000 1375.000
18.51500 1408.000
18.56000 1440.000
18.60500 1388.000
18.65000 1510.000
18.69500 1429.000
18.74000 1392.000
18.78500 1387.000
18.83000 1464.000
18.87500 1445.000
18.92000 1395.000
18.96500 1423.000
19.01000 1401.000
19.05500 1492.000
19.10000 1408.000
19.14500 1408.000
19.19000 1453.000
19.23500 1384.000
19.28000 1350.000
19.32500 1406.000
19.37000 1406.000
19.41500 1365.000
19.46000 1427.000
19.50500 1403.000
19.55000 1315.000
19.59500 1402.000
19.64000 1348.000
19.68500 1361.000
19.73000 1428.000
19.77500 1440.000
19.82000 1445.000
19.86500 1363.000
19.91000 1393.000
19.95500 1337.000
20.00000 1380.000
20.04500 1423.000
20.09000 1362.000
20.13500 1394.000
20.18000 1455.000
20.22500 1337.000
20.27000 1443.000
20.31500 1411.000
20.36000 1342.000
20.40500 1373.000
20.45000 1357.000
20.49500 1411.000
20.54000 1375.000
20.58500 1389.000
20.63000 1379.000
20.67500 1358.000
20.72000 1389.000
20.76500 1430.000
20.81000 1397.000
20.85500 1411.000
20.90000 1353.000
20.94500 1369.000
20.99000 1426.000
21.03500 1414.000
21.08000 1432.000
21.12500 1395.000
21.17000 1383.000
21.21500 1412.000
21.26000 1436.000
21.30500 1440.000
21.35000 1432.000
21.39500 1456.000
21.44000 1431.000
21.48500 1472.000
21.53000 1428.000
21.57500 1387.000
21.62000 1444.000
21.66500 1427.000
21.71000 1442.000
21.75500 1470.000
21.80000 1410.000
21.84500 1477.000
21.89000 1444.000
21.93500 1428.000
21.98000 1411.000
22.02500 1412.000
22.07000 1461.000
22.11500 1435.000
22.16000 1476.000
22.20500 1417.000
22.25000 1400.000
22.29500 1493.000
22.34000 1383.000
22.38500 1471.000
22.43000 1412.000
22.47500 1430.000
22.52000 1393.000
22.56500 1397.000
22.61000 1443.000
22.65500 1394.000
22.70000 1420.000
22.74500 1316.000
22.79000 1360.000
22.83500 1434.000
22.88000 1409.000
22.92500 1357.000
22.97000 1407.000
23.01500 1469.000
23.06000 1440.000
23.10500 1513.000
23.15000 1424.000
23.19500 1416.000
23.24000 1356.000
23.28500 1437.000
23.33000 1387.000
23.37500 1396.000
23.42000 1448.000
23.46500 1417.000
23.51000 1460.000
23.55500 1397.000
23.60000 1364.000
23.64500 1417.000
23.69000 1452.000
23.73500 1450.000
23.78000 1419.000
23.82500 1435.000
23.87000 1457.000
23.91500 1426.000
23.96000 1404.000
24.00500 1376.000
24.05000 1381.000
24.09500 1431.000
24.14000 1430.000
24.18500 1411.000
24.23000 1460.000
24.27500 1390.000
24.32000 1464.000
24.36500 1441.000
24.41000 1393.000
24.45500 1437.000
24.50000 1474.000
24.54500 1423.000
24.59000 1549.000
24.63500 1450.000
24.68000 1516.000
24.72500 1532.000
24.77000 1465.000
24.81500 1515.000
24.86000 1487.000
24.90500 1498.000
24.95000 1494.000
24.99500 1571.000
25.04000 1516.000
25.08500 1614.000
25.13000 1583.000
25.17500 1590.000
25.22000 1645.000
25.26500 1609.000
25.31000 1597.000
25.35500 1679.000
25.40000 1684.000
25.44500 1666.000
25.49000 1660.000
25.53500 1721.000
25.58000 1808.000
25.62500 1808.000
25.67000 1809.000
25.71500 1750.000
25.76000 1917.000
25.80500 1943.000
25.85000 1909.000
25.89500 1901.000
25.94000 1999.000
25.98500 2013.000
26.03000 2051.000
26.07500 1994.000
26.12000 2160.000
26.16500 2145.000
26.21000 2308.000
26.25500 2320.000
26.30000 2433.000
26.34500 2453.000
26.39000 2501.000
26.43500 2606.000
26.48000 2604.000
26.52500 2837.000
26.57000 2853.000
26.61500 2972.000
26.66000 3113.000
26.70500 3175.000
26.75000 3363.000
26.79500 3389.000
26.84000 3503.000
26.88500 3751.000
26.93000 3924.000
26.97500 4021.000
27.02000 4207.000
27.06500 4322.000
27.11000 4527.000
27.15500 4728.000
27.20000 4826.000
27.24500 5095.000
27.29000 5146.000
27.33500 5332.000
27.38000 5470.000
27.42500 5787.000
27.47000 5710.000
27.51500 5680.000
27.56000 5596.000
27.60500 5611.000
27.65000 5575.000
27.69500 5365.000
27.74000 5103.000
27.78500 4917.000
27.83000 4606.000
27.87500 4433.000
27.92000 4182.000
27.96500 3927.000
28.01000 3658.000
28.05500 3406.000
28.10000 3360.000
28.14500 2908.000
28.19000 2940.000
28.23500 2723.000
28.28000 2625.000
28.32500 2557.000
28.37000 2387.000
28.41500 2318.000
28.46000 2156.000
28.50500 2036.000
28.55000 2028.000
28.59500 1906.000
28.64000 1964.000
28.68500 1787.000
28.73000 1921.000
28.77500 1762.000
28.82000 1670.000
28.86500 1694.000
28.91000 1617.000
28.95500 1595.000
29.00000 1556.000
29.04500 1512.000
29.09000 1555.000
29.13500 1499.000
29.18000 1455.000
29.22500 1457.000
29.27000 1426.000
29.31500 1542.000
29.36000 1615.000
29.40500 2118.000
29.45000 1591.000
29.49500 1463.000
29.54000 1376.000
29.58500 1358.000
29.63000 1325.000
29.67500 1267.000
29.72000 1279.000
29.76500 1283.000
29.81000 1250.000
29.85500 1298.000
29.90000 1245.000
29.94500 1197.000
29.99000 1208.000
30.03500 1163.000
30.08000 1144.000
30.12500 1160.000
30.17000 1154.000
30.21500 1241.000
30.26000 1135.000
30.30500 1189.000
30.35000 1161.000
30.39500 1112.000
30.44000 1164.000
30.48500 1126.000
30.53000 1143.000
30.57500 1143.000
30.62000 1101.000
30.66500 1124.000
30.71000 1095.000
30.75500 1061.000
30.80000 1066.000
30.84500 1086.000
30.89000 1084.000
30.93500 1065.000
30.98000 1079.000
31.02500 1069.000
31.07000 1111.000
31.11500 1046.000
31.16000 1029.000
31.20500 1014.000
31.25000 1024.000
31.29500 1025.000
31.34000 1012.000
31.38500 1034.000
31.43000 1050.000
31.47500 995.000
31.52000 994.000
31.56500 957.000
31.61000 1059.000
31.65500 994.000
31.70000 972.000
31.74500 966.000
31.79000 961.000
31.83500 962.000
31.88000 965.000
31.92500 944.000
31.97000 973.000
32.01500 983.000
32.06000 951.000
32.10500 977.000
32.15000 944.000
32.19500 966.000
32.24000 968.000
32.28500 933.000
32.33000 949.000
32.37500 906.000
32.42000 916.000
32.46500 907.000
32.51000 875.000
32.55500 898.000
32.60000 921.000
32.64500 867.000
32.69000 877.000
32.73500 881.000
32.78000 918.000
32.82500 857.000
32.87000 880.000
32.91500 874.000
32.96000 828.000
33.00500 816.000
33.05000 830.000
33.09500 848.000
33.14000 850.000
33.18500 830.000
33.23000 841.000
33.27500 835.000
33.32000 832.000
33.36500 778.000
33.41000 841.000
33.45500 802.000
33.50000 829.000
33.54500 855.000
33.59000 867.000
33.63500 825.000
33.68000 816.000
33.72500 769.000
33.77000 786.000
33.81500 834.000
33.86000 797.000
33.90500 805.000
33.95000 789.000
33.99500 802.000
34.04000 803.000
34.08500 816.000
34.13000 755.000
34.17500 755.000
34.22000 755.000
34.26500 785.000
34.31000 755.000
34.35500 743.000
34.40000 793.000
34.44500 805.000
34.49000 732.000
34.53500 741.000
34.58000 741.000
34.62500 741.000
34.67000 787.000
34.71500 773.000
34.76000 702.000
34.80500 785.000
34.85000 749.000
34.89500 702.000
34.94000 762.000
34.98500 755.000
35.03000 772.000
35.07500 763.000
35.12000 726.000
35.16500 750.000
35.21000 706.000
35.25500 727.000
35.30000 739.000
35.34500 734.000
35.39000 717.000
35.43500 735.000
35.48000 711.000
35.52500 738.000
35.57000 744.000
35.61500 680.000
35.66000 723.000
35.70500 749.000
35.75000 698.000
35.79500 752.000
35.84000 721.000
35.88500 731.000
35.93000 753.000
35.97500 770.000
36.02000 830.000
36.06500 841.000
36.11000 822.000
36.15500 758.000
36.20000 729.000
36.24500 690.000
36.29000 700.000
36.33500 675.000
36.38000 681.000
36.42500 689.000
36.47000 690.000
36.51500 675.000
36.56000 677.000
36.60500 694.000
36.65000 672.000
36.69500 668.000
36.74000 680.000
36.78500 655.000
36.83000 615.000
36.87500 642.000
36.92000 666.000
36.96500 677.000
37.01000 663.000
37.05500 668.000
37.10000 655.000
37.14500 631.000
37.19000 647.000
37.23500 723.000
37.28000 639.000
37.32500 645.000
37.37000 657.000
37.41500 665.000
37.46000 656.000
37.50500 686.000
37.55000 622.000
37.59500 679.000
37.64000 634.000
37.68500 651.000
37.73000 682.000
37.77500 654.000
37.82000 643.000
37.86500 637.000
37.91000 648.000
37.95500 677.000
38.00000 601.000
38.04500 643.000
38.09000 649.000
38.13500 627.000
38.18000 627.000
38.22500 638.000
38.27000 677.000
38.31500 632.000
38.36000 640.000
38.40500 636.000
38.45000 647.000
38.49500 612.000
38.54000 665.000
38.58500 664.000
38.63000 624.000
38.67500 649.000
38.72000 619.000
38.76500 638.000
38.81000 618.000
38.85500 643.000
38.90000 639.000
38.94500 624.000
38.99000 592.000
39.03500 651.000
39.08000 620.000
39.12500 622.000
39.17000 645.000
39.21500 676.000
39.26000 631.000
39.30500 668.000
39.35000 630.000
39.39500 708.000
39.44000 703.000
39.48500 697.000
39.53000 642.000
39.57500 627.000
39.62000 633.000
39.66500 650.000
39.71000 591.000
39.75500 620.000
39.80000 624.000
39.84500 618.000
39.89000 660.000
39.93500 646.000
39.98000 592.000
40.02500 592.000
40.07000 605.000
40.11500 581.000
40.16000 642.000
40.20500 625.000
40.25000 616.000
40.29500 618.000
40.34000 620.000
40.38500 630.000
40.43000 635.000
40.47500 649.000
40.52000 670.000
40.56500 625.000
40.61000 616.000
40.65500 628.000
40.70000 621.000
40.74500 616.000
40.79000 651.000
40.83500 626.000
40.88000 596.000
40.92500 626.000
40.97000 608.000
41.01500 628.000
41.06000 614.000
41.10500 628.000
41.15000 652.000
41.19500 668.000
41.24000 720.000
41.28500 630.000
41.33000 595.000
41.37500 637.000
41.42000 615.000
41.46500 627.000
41.51000 616.000
41.55500 603.000
41.60000 576.000
41.64500 610.000
41.69000 618.000
41.73500 625.000
41.78000 646.000
41.82500 601.000
41.87000 606.000
41.91500 622.000
41.96000 640.000
42.00500 628.000
42.05000 590.000
42.09500 604.000
42.14000 656.000
42.18500 640.000
42.23000 639.000
42.27500 626.000
42.32000 603.000
42.36500 629.000
42.41000 586.000
42.45500 606.000
42.50000 595.000
42.54500 656.000
42.59000 603.000
42.63500 648.000
42.68000 680.000
42.72500 647.000
42.77000 634.000
42.81500 644.000
42.86000 647.000
42.90500 629.000
42.95000 621.000
42.99500 637.000
43.04000 660.000
43.08500 709.000
43.13000 706.000
43.17500 738.000
43.22000 656.000
43.26500 690.000
43.31000 670.000
43.35500 646.000
43.40000 691.000
43.44500 651.000
43.49000 657.000
43.53500 729.000
43.58000 666.000
43.62500 656.000
43.67000 700.000
43.71500 659.000
43.76000 712.000
43.80500 671.000
43.85000 693.000
43.89500 662.000
43.94000 710.000
43.98500 702.000
44.03000 715.000
44.07500 752.000
44.12000 705.000
44.16500 691.000
44.21000 694.000
44.25500 687.000
44.30000 700.000
44.34500 688.000
44.39000 707.000
44.43500 698.000
44.48000 721.000
44.52500 672.000
44.57000 731.000
44.61500 720.000
44.66000 705.000
44.70500 701.000
44.75000 668.000
44.79500 710.000
44.84000 697.000
44.88500 711.000
44.93000 704.000
44.97500 670.000
45.02000 643.000
45.06500 677.000
45.11000 705.000
45.15500 655.000
45.20000 642.000
45.24500 673.000
45.29000 662.000
45.33500 643.000
45.38000 703.000
45.42500 675.000
45.47000 622.000
45.51500 681.000
45.56000 663.000
45.60500 640.000
45.65000 671.000
45.69500 637.000
45.74000 696.000
45.78500 658.000
45.83000 658.000
45.87500 634.000
45.92000 643.000
45.96500 631.000
46.01000 647.000
46.05500 649.000
46.10000 626.000
46.14500 642.000
46.19000 685.000
46.23500 661.000
46.28000 648.000
46.32500 661.000
46.37000 631.000
46.41500 597.000
46.46000 621.000
46.50500 630.000
46.55000 620.000
46.59500 657.000
46.64000 607.000
46.68500 610.000
46.73000 629.000
46.77500 611.000
46.82000 616.000
46.86500 617.000
46.91000 595.000
46.95500 624.000
47.00000 625.000
47.04500 626.000
47.09000 622.000
47.13500 628.000
47.18000 607.000
47.22500 607.000
47.27000 585.000
47.31500 596.000
47.36000 598.000
47.40500 555.000
47.45000 640.000
47.49500 645.000
47.54000 665.000
47.58500 585.000
47.63000 611.000
47.67500 632.000
47.72000 590.000
47.76500 584.000
47.81000 608.000
47.85500 568.000
47.90000 566.000
47.94500 598.000
47.99000 580.000
48.03500 556.000
48.08000 588.000
48.12500 583.000
48.17000 599.000
48.21500 587.000
48.26000 598.000
48.30500 607.000
48.35000 599.000
48.39500 552.000
48.44000 626.000
48.48500 639.000
48.53000 674.000
48.57500 614.000
48.62000 622.000
48.66500 554.000
48.71000 581.000
48.75500 590.000
48.80000 563.000
48.84500 551.000
48.89000 568.000
48.93500 536.000
48.98000 587.000
49.02500 583.000
49.07000 553.000
49.11500 542.000
49.16000 553.000
49.20500 530.000
49.25000 553.000
49.29500 533.000
49.34000 545.000
49.38500 550.000
49.43000 563.000
49.47500 543.000
49.52000 576.000
49.56500 572.000
49.61000 543.000
49.65500 511.000
49.70000 538.000
49.74500 544.000
49.79000 541.000
49.83500 529.000
49.88000 566.000
49.92500 555.000
49.97000 569.000
50.01500 558.000
50.06000 547.000
50.10500 542.000
50.15000 545.000
50.19500 554.000
50.24000 577.000
50.28500 530.000
50.33000 544.000
50.37500 518.000
50.42000 540.000
50.46500 504.000
50.51000 559.000
50.55500 544.000
50.60000 519.000
50.64500 531.000
50.69000 516.000
50.73500 538.000
50.78000 555.000
50.82500 534.000
50.87000 515.000
50.91500 567.000
50.96000 535.000
51.00500 517.000
51.05000 544.000
51.09500 548.000
51.14000 542.000
51.18500 523.000
51.23000 530.000
51.27500 527.000
51.32000 525.000
51.36500 583.000
51.41000 530.000
51.45500 512.000
51.50000 581.000
51.54500 534.000
51.59000 530.000
51.63500 511.000
51.68000 498.000
51.72500 563.000
51.77000 531.000
51.81500 512.000
51.86000 546.000
51.90500 526.000
51.95000 512.000
51.99500 518.000
52.04000 532.000
52.08500 553.000
52.13000 498.000
52.17500 506.000
52.22000 510.000
52.26500 524.000
52.31000 556.000
52.35500 526.000
52.40000 514.000
52.44500 505.000
52.49000 521.000
52.53500 525.000
52.58000 512.000
52.62500 521.000
52.67000 534.000
52.71500 499.000
52.76000 532.000
52.80500 556.000
52.85000 520.000
52.89500 508.000
52.94000 521.000
52.98500 498.000
53.03000 557.000
53.07500 513.000
53.12000 512.000
53.16500 517.000
53.21000 534.000
53.25500 506.000
53.30000 489.000
53.34500 509.000
53.39000 536.000
53.43500 503.000
53.48000 504.000
53.52500 509.000
53.57000 516.000
53.61500 514.000
53.66000 492.000
53.70500 519.000
53.75000 486.000
53.79500 509.000
53.84000 491.000
53.88500 489.000
53.93000 501.000
53.97500 501.000
54.02000 533.000
54.06500 498.000
54.11000 524.000
54.15500 504.000
54.20000 472.000
54.24500 524.000
54.29000 637.000
54.33500 707.000
54.38000 551.000
54.42500 505.000
54.47000 502.000
54.51500 495.000
54.56000 509.000
54.60500 503.000
54.65000 514.000
54.69500 479.000
54.74000 502.000
54.78500 505.000
54.83000 502.000
54.87500 469.000
54.92000 471.000
54.96500 464.000
55.01000 520.000
55.05500 544.000
55.10000 505.000
55.14500 482.000
55.19000 490.000
55.23500 506.000
55.28000 485.000
55.32500 502.000
55.37000 501.000
55.41500 490.000
55.46000 494.000
55.50500 508.000
55.55000 506.000
55.59500 516.000
55.64000 521.000
55.68500 478.000
55.73000 545.000
55.77500 540.000
55.82000 515.000
55.86500 497.000
55.91000 524.000
55.95500 510.000
56.00000 504.000
56.04500 524.000
56.09000 553.000
56.13500 505.000
56.18000 525.000
56.22500 559.000
56.27000 529.000
56.31500 520.000
56.36000 516.000
56.40500 568.000
56.45000 536.000
56.49500 568.000
56.54000 580.000
56.58500 599.000
56.63000 583.000
56.67500 573.000
56.72000 536.000
56.76500 545.000
56.81000 529.000
56.85500 552.000
56.90000 558.000
56.94500 533.000
56.99000 548.000
57.03500 536.000
57.08000 570.000
57.12500 513.000
57.17000 535.000
57.21500 537.000
57.26000 537.000
57.30500 528.000
57.35000 541.000
57.39500 583.000
57.44000 552.000
57.48500 566.000
57.53000 508.000
57.57500 486.000
57.62000 485.000
57.66500 518.000
57.71000 511.000
57.75500 514.000
57.80000 463.000
57.84500 462.000
57.89000 482.000
57.93500 466.000
57.98000 482.000
58.02500 489.000
58.07000 465.000
58.11500 460.000
58.16000 488.000
58.20500 459.000
58.25000 449.000
58.29500 437.000
58.34000 433.000
58.38500 443.000
58.43000 457.000
58.47500 470.000
58.52000 445.000
58.56500 410.000
58.61000 434.000
58.65500 431.000
58.70000 412.000
58.74500 417.000
58.79000 453.000
58.83500 425.000
58.88000 408.000
58.92500 421.000
58.97000 447.000
59.01500 418.000
59.06000 447.000
59.10500 429.000
59.15000 445.000
59.19500 408.000
59.24000 400.000
59.28500 415.000
59.33000 407.000
59.37500 382.000
59.42000 436.000
59.46500 426.000
59.51000 414.000
59.55500 398.000
59.60000 399.000
59.64500 403.000
59.69000 438.000
59.73500 403.000
59.78000 408.000
59.82500 410.000
59.87000 416.000
59.91500 378.000
59.96000 391.000
60.00500 413.000
60.05000 377.000
60.09500 400.000
60.14000 409.000
60.18500 415.000
60.23000 389.000
60.27500 385.000
60.32000 384.000
60.36500 384.000
60.41000 408.000
60.45500 383.000
60.50000 399.000
60.54500 420.000
60.59000 422.000
60.63500 433.000
60.68000 424.000
60.72500 424.000
60.77000 404.000
60.81500 390.000
60.86000 404.000
60.90500 409.000
60.95000 360.000
60.99500 410.000
61.04000 429.000
61.08500 378.000
61.13000 368.000
61.17500 374.000
61.22000 376.000
61.26500 375.000
61.31000 386.000
61.35500 375.000
61.40000 389.000
61.44500 403.000
61.49000 350.000
61.53500 380.000
61.58000 395.000
61.62500 359.000
61.67000 392.000
61.71500 406.000
61.76000 383.000
61.80500 384.000
61.85000 377.000
61.89500 388.000
61.94000 402.000
61.98500 380.000