File: ISoD/xrd_data/HSC076_nSaeure.xy
2.00000 0.000
2.04500 4.000
2.09000 2.000
2.13500 5.000
2.18000 2.000
2.22500 3.000
2.27000 3.000
2.31500 3.000
2.36000 4.000
2.40500 3.000
2.45000 4.000
2.49500 4.000
2.54000 2.000
2.58500 2.000
2.63000 0.000
2.67500 4.000
2.72000 4.000
2.76500 3.000
2.81000 1.000
2.85500 3.000
2.90000 2.000
2.94500 1.000
2.99000 3.000
3.03500 2.000
3.08000 1.000
3.12500 6.000
3.17000 15.000
3.21500 42.000
3.26000 97.000
3.30500 144.000
3.35000 155.000
3.39500 160.000
3.44000 164.000
3.48500 175.000
3.53000 163.000
3.57500 167.000
3.62000 176.000
3.66500 172.000
3.71000 177.000
3.75500 191.000
3.80000 185.000
3.84500 184.000
3.89000 166.000
3.93500 174.000
3.98000 175.000
4.02500 197.000
4.07000 186.000
4.11500 195.000
4.16000 177.000
4.20500 184.000
4.25000 174.000
4.29500 187.000
4.34000 179.000
4.38500 195.000
4.43000 214.000
4.47500 187.000
4.52000 211.000
4.56500 208.000
4.61000 195.000
4.65500 199.000
4.70000 224.000
4.74500 215.000
4.79000 216.000
4.83500 212.000
4.88000 214.000
4.92500 213.000
4.97000 203.000
5.01500 211.000
5.06000 213.000
5.10500 200.000
5.15000 236.000
5.19500 197.000
5.24000 198.000
5.28500 231.000
5.33000 212.000
5.37500 223.000
5.42000 238.000
5.46500 228.000
5.51000 242.000
5.55500 218.000
5.60000 221.000
5.64500 211.000
5.69000 215.000
5.73500 213.000
5.78000 210.000
5.82500 230.000
5.87000 221.000
5.91500 238.000
5.96000 239.000
6.00500 230.000
6.05000 239.000
6.09500 257.000
6.14000 229.000
6.18500 237.000
6.23000 237.000
6.27500 223.000
6.32000 243.000
6.36500 234.000
6.41000 249.000
6.45500 232.000
6.50000 240.000
6.54500 246.000
6.59000 241.000
6.63500 224.000
6.68000 251.000
6.72500 272.000
6.77000 248.000
6.81500 262.000
6.86000 255.000
6.90500 269.000
6.95000 251.000
6.99500 252.000
7.04000 245.000
7.08500 259.000
7.13000 267.000
7.17500 275.000
7.22000 260.000
7.26500 265.000
7.31000 257.000
7.35500 288.000
7.40000 282.000
7.44500 294.000
7.49000 277.000
7.53500 253.000
7.58000 268.000
7.62500 287.000
7.67000 264.000
7.71500 268.000
7.76000 275.000
7.80500 280.000
7.85000 263.000
7.89500 264.000
7.94000 275.000
7.98500 256.000
8.03000 247.000
8.07500 292.000
8.12000 252.000
8.16500 285.000
8.21000 284.000
8.25500 263.000
8.30000 260.000
8.34500 282.000
8.39000 256.000
8.43500 286.000
8.48000 288.000
8.52500 275.000
8.57000 293.000
8.61500 279.000
8.66000 257.000
8.70500 271.000
8.75000 273.000
8.79500 254.000
8.84000 279.000
8.88500 284.000
8.93000 283.000
8.97500 269.000
9.02000 303.000
9.06500 267.000
9.11000 258.000
9.15500 273.000
9.20000 258.000
9.24500 299.000
9.29000 275.000
9.33500 248.000
9.38000 282.000
9.42500 272.000
9.47000 265.000
9.51500 280.000
9.56000 277.000
9.60500 278.000
9.65000 265.000
9.69500 262.000
9.74000 248.000
9.78500 261.000
9.83000 287.000
9.87500 267.000
9.92000 301.000
9.96500 277.000
10.01000 285.000
10.05500 281.000
10.10000 271.000
10.14500 247.000
10.19000 277.000
10.23500 264.000
10.28000 250.000
10.32500 278.000
10.37000 259.000
10.41500 281.000
10.46000 268.000
10.50500 260.000
10.55000 263.000
10.59500 257.000
10.64000 272.000
10.68500 254.000
10.73000 279.000
10.77500 256.000
10.82000 289.000
10.86500 266.000
10.91000 279.000
10.95500 264.000
11.00000 272.000
11.04500 279.000
11.09000 283.000
11.13500 268.000
11.18000 263.000
11.22500 295.000
11.27000 270.000
11.31500 286.000
11.36000 256.000
11.40500 273.000
11.45000 250.000
11.49500 267.000
11.54000 291.000
11.58500 264.000
11.63000 292.000
11.67500 277.000
11.72000 274.000
11.76500 280.000
11.81000 301.000
11.85500 319.000
11.90000 322.000
11.94500 268.000
11.99000 292.000
12.03500 256.000
12.08000 268.000
12.12500 284.000
12.17000 274.000
12.21500 302.000
12.26000 289.000
12.30500 322.000
12.35000 298.000
12.39500 298.000
12.44000 287.000
12.48500 303.000
12.53000 292.000
12.57500 287.000
12.62000 309.000
12.66500 300.000
12.71000 337.000
12.75500 284.000
12.80000 280.000
12.84500 286.000
12.89000 285.000
12.93500 263.000
12.98000 291.000
13.02500 319.000
13.07000 299.000
13.11500 302.000
13.16000 317.000
13.20500 338.000
13.25000 318.000
13.29500 297.000
13.34000 321.000
13.38500 340.000
13.43000 328.000
13.47500 338.000
13.52000 370.000
13.56500 394.000
13.61000 434.000
13.65500 507.000
13.70000 513.000
13.74500 505.000
13.79000 487.000
13.83500 489.000
13.88000 525.000
13.92500 453.000
13.97000 377.000
14.01500 388.000
14.06000 364.000
14.10500 324.000
14.15000 349.000
14.19500 326.000
14.24000 340.000
14.28500 339.000
14.33000 336.000
14.37500 315.000
14.42000 354.000
14.46500 341.000
14.51000 338.000
14.55500 333.000
14.60000 319.000
14.64500 352.000
14.69000 334.000
14.73500 357.000
14.78000 332.000
14.82500 317.000
14.87000 328.000
14.91500 357.000
14.96000 383.000
15.00500 338.000
15.05000 370.000
15.09500 345.000
15.14000 337.000
15.18500 384.000
15.23000 347.000
15.27500 346.000
15.32000 356.000
15.36500 328.000
15.41000 342.000
15.45500 352.000
15.50000 368.000
15.54500 341.000
15.59000 370.000
15.63500 394.000
15.68000 448.000
15.72500 489.000
15.77000 595.000
15.81500 771.000
15.86000 996.000
15.90500 1164.000
15.95000 1154.000
15.99500 990.000
16.04000 737.000
16.08500 596.000
16.13000 485.000
16.17500 459.000
16.22000 400.000
16.26500 418.000
16.31000 426.000
16.35500 518.000
16.40000 557.000
16.44500 593.000
16.49000 522.000
16.53500 486.000
16.58000 380.000
16.62500 374.000
16.67000 355.000
16.71500 346.000
16.76000 333.000
16.80500 363.000
16.85000 312.000
16.89500 342.000
16.94000 323.000
16.98500 345.000
17.03000 342.000
17.07500 351.000
17.12000 375.000
17.16500 373.000
17.21000 386.000
17.25500 372.000
17.30000 378.000
17.34500 374.000
17.39000 377.000
17.43500 357.000
17.48000 382.000
17.52500 386.000
17.57000 420.000
17.61500 382.000
17.66000 422.000
17.70500 397.000
17.75000 418.000
17.79500 437.000
17.84000 441.000
17.88500 457.000
17.93000 487.000
17.97500 508.000
18.02000 537.000
18.06500 566.000
18.11000 590.000
18.15500 594.000
18.20000 623.000
18.24500 644.000
18.29000 615.000
18.33500 596.000
18.38000 588.000
18.42500 609.000
18.47000 554.000
18.51500 589.000
18.56000 624.000
18.60500 610.000
18.65000 619.000
18.69500 610.000
18.74000 533.000
18.78500 509.000
18.83000 514.000
18.87500 456.000
18.92000 452.000
18.96500 462.000
19.01000 431.000
19.05500 450.000
19.10000 453.000
19.14500 460.000
19.19000 457.000
19.23500 483.000
19.28000 500.000
19.32500 507.000
19.37000 501.000
19.41500 464.000
19.46000 465.000
19.50500 431.000
19.55000 413.000
19.59500 397.000
19.64000 391.000
19.68500 358.000
19.73000 352.000
19.77500 371.000
19.82000 360.000
19.86500 348.000
19.91000 356.000
19.95500 335.000
20.00000 321.000
20.04500 327.000
20.09000 344.000
20.13500 342.000
20.18000 337.000
20.22500 345.000
20.27000 308.000
20.31500 326.000
20.36000 333.000
20.40500 331.000
20.45000 322.000
20.49500 296.000
20.54000 320.000
20.58500 338.000
20.63000 292.000
20.67500 343.000
20.72000 319.000
20.76500 340.000
20.81000 287.000
20.85500 320.000
20.90000 327.000
20.94500 313.000
20.99000 324.000
21.03500 329.000
21.08000 321.000
21.12500 301.000
21.17000 319.000
21.21500 328.000
21.26000 296.000
21.30500 330.000
21.35000 306.000
21.39500 313.000
21.44000 326.000
21.48500 352.000
21.53000 314.000
21.57500 363.000
21.62000 361.000
21.66500 338.000
21.71000 336.000
21.75500 311.000
21.80000 340.000
21.84500 341.000
21.89000 338.000
21.93500 315.000
21.98000 360.000
22.02500 357.000
22.07000 340.000
22.11500 336.000
22.16000 354.000
22.20500 320.000
22.25000 384.000
22.29500 392.000
22.34000 460.000
22.38500 573.000
22.43000 654.000
22.47500 587.000
22.52000 464.000
22.56500 403.000
22.61000 351.000
22.65500 373.000
22.70000 362.000
22.74500 356.000
22.79000 350.000
22.83500 366.000
22.88000 335.000
22.92500 350.000
22.97000 372.000
23.01500 361.000
23.06000 347.000
23.10500 361.000
23.15000 335.000
23.19500 346.000
23.24000 332.000
23.28500 355.000
23.33000 343.000
23.37500 359.000
23.42000 370.000
23.46500 352.000
23.51000 369.000
23.55500 393.000
23.60000 368.000
23.64500 397.000
23.69000 373.000
23.73500 412.000
23.78000 418.000
23.82500 499.000
23.87000 491.000
23.91500 505.000
23.96000 488.000
24.00500 425.000
24.05000 401.000
24.09500 423.000
24.14000 392.000
24.18500 331.000
24.23000 337.000
24.27500 323.000
24.32000 364.000
24.36500 339.000
24.41000 379.000
24.45500 360.000
24.50000 364.000
24.54500 387.000
24.59000 371.000
24.63500 362.000
24.68000 425.000
24.72500 381.000
24.77000 367.000
24.81500 401.000
24.86000 393.000
24.90500 407.000
24.95000 405.000
24.99500 398.000
25.04000 396.000
25.08500 419.000
25.13000 427.000
25.17500 427.000
25.22000 460.000
25.26500 458.000
25.31000 443.000
25.35500 435.000
25.40000 451.000
25.44500 425.000
25.49000 445.000
25.53500 435.000
25.58000 432.000
25.62500 391.000
25.67000 389.000
25.71500 402.000
25.76000 412.000
25.80500 415.000
25.85000 413.000
25.89500 414.000
25.94000 416.000
25.98500 419.000
26.03000 408.000
26.07500 414.000
26.12000 433.000
26.16500 448.000
26.21000 461.000
26.25500 470.000
26.30000 469.000
26.34500 480.000
26.39000 500.000
26.43500 518.000
26.48000 526.000
26.52500 591.000
26.57000 618.000
26.61500 715.000
26.66000 783.000
26.70500 871.000
26.75000 1031.000
26.79500 1204.000
26.84000 1463.000
26.88500 1753.000
26.93000 2057.000
26.97500 2356.000
27.02000 2306.000
27.06500 2149.000
27.11000 1928.000
27.15500 1666.000
27.20000 1439.000
27.24500 1294.000
27.29000 1069.000
27.33500 956.000
27.38000 870.000
27.42500 849.000
27.47000 901.000
27.51500 1078.000
27.56000 1630.000
27.60500 2786.000
27.65000 3643.000
27.69500 3835.000
27.74000 3109.000
27.78500 2114.000
27.83000 1396.000
27.87500 1041.000
27.92000 832.000
27.96500 739.000
28.01000 715.000
28.05500 674.000
28.10000 622.000
28.14500 573.000
28.19000 575.000
28.23500 509.000
28.28000 464.000
28.32500 477.000
28.37000 456.000
28.41500 456.000
28.46000 468.000
28.50500 455.000
28.55000 440.000
28.59500 483.000
28.64000 491.000
28.68500 471.000
28.73000 462.000
28.77500 440.000
28.82000 471.000
28.86500 459.000
28.91000 435.000
28.95500 440.000
29.00000 465.000
29.04500 474.000
29.09000 458.000
29.13500 438.000
29.18000 466.000
29.22500 407.000
29.27000 397.000
29.31500 434.000
29.36000 417.000
29.40500 470.000
29.45000 431.000
29.49500 421.000
29.54000 417.000
29.58500 404.000
29.63000 375.000
29.67500 400.000
29.72000 343.000
29.76500 383.000
29.81000 375.000
29.85500 376.000
29.90000 348.000
29.94500 361.000
29.99000 347.000
30.03500 380.000
30.08000 357.000
30.12500 348.000
30.17000 350.000
30.21500 350.000
30.26000 331.000
30.30500 392.000
30.35000 349.000
30.39500 346.000
30.44000 373.000
30.48500 365.000
30.53000 393.000
30.57500 369.000
30.62000 388.000
30.66500 364.000
30.71000 356.000
30.75500 366.000
30.80000 377.000
30.84500 363.000
30.89000 365.000
30.93500 389.000
30.98000 382.000
31.02500 378.000
31.07000 374.000
31.11500 368.000
31.16000 418.000
31.20500 363.000
31.25000 350.000
31.29500 384.000
31.34000 356.000
31.38500 385.000
31.43000 401.000
31.47500 385.000
31.52000 383.000
31.56500 408.000
31.61000 407.000
31.65500 435.000
31.70000 442.000
31.74500 407.000
31.79000 443.000
31.83500 426.000
31.88000 410.000
31.92500 429.000
31.97000 462.000
32.01500 534.000
32.06000 566.000
32.10500 560.000
32.15000 572.000
32.19500 555.000
32.24000 565.000
32.28500 499.000
32.33000 445.000
32.37500 464.000
32.42000 512.000
32.46500 548.000
32.51000 817.000
32.55500 862.000
32.60000 703.000
32.64500 578.000
32.69000 514.000
32.73500 511.000
32.78000 504.000
32.82500 515.000
32.87000 533.000
32.91500 544.000
32.96000 546.000
33.00500 559.000
33.05000 544.000
33.09500 569.000
33.14000 582.000
33.18500 649.000
33.23000 658.000
33.27500 599.000
33.32000 559.000
33.36500 520.000
33.41000 486.000
33.45500 462.000
33.50000 416.000
33.54500 448.000
33.59000 409.000
33.63500 380.000
33.68000 400.000
33.72500 381.000
33.77000 361.000
33.81500 344.000
33.86000 337.000
33.90500 336.000
33.95000 339.000
33.99500 334.000
34.04000 308.000
34.08500 318.000
34.13000 309.000
34.17500 329.000
34.22000 346.000
34.26500 336.000
34.31000 334.000
34.35500 301.000
34.40000 328.000
34.44500 312.000
34.49000 290.000
34.53500 276.000
34.58000 270.000
34.62500 306.000
34.67000 296.000
34.71500 322.000
34.76000 350.000
34.80500 358.000
34.85000 347.000
34.89500 308.000
34.94000 285.000
34.98500 269.000
35.03000 299.000
35.07500 284.000
35.12000 281.000
35.16500 280.000
35.21000 304.000
35.25500 310.000
35.30000 315.000
35.34500 293.000
35.39000 343.000
35.43500 299.000
35.48000 305.000
35.52500 279.000
35.57000 277.000
35.61500 284.000
35.66000 284.000
35.70500 251.000
35.75000 276.000
35.79500 246.000
35.84000 249.000
35.88500 262.000
35.93000 256.000
35.97500 275.000
36.02000 257.000
36.06500 251.000
36.11000 247.000
36.15500 277.000
36.20000 277.000
36.24500 263.000
36.29000 270.000
36.33500 246.000
36.38000 272.000
36.42500 290.000
36.47000 260.000
36.51500 274.000
36.56000 289.000
36.60500 262.000
36.65000 261.000
36.69500 265.000
36.74000 239.000
36.78500 278.000
36.83000 228.000
36.87500 244.000
36.92000 265.000
36.96500 235.000
37.01000 257.000
37.05500 257.000
37.10000 280.000
37.14500 263.000
37.19000 261.000
37.23500 254.000
37.28000 234.000
37.32500 225.000
37.37000 273.000
37.41500 249.000
37.46000 219.000
37.50500 251.000
37.55000 215.000
37.59500 231.000
37.64000 237.000
37.68500 223.000
37.73000 217.000
37.77500 207.000
37.82000 232.000
37.86500 207.000
37.91000 197.000
37.95500 219.000
38.00000 202.000
38.04500 214.000
38.09000 205.000
38.13500 217.000
38.18000 202.000
38.22500 212.000
38.27000 214.000
38.31500 207.000
38.36000 235.000
38.40500 235.000
38.45000 220.000
38.49500 219.000
38.54000 233.000
38.58500 239.000
38.63000 250.000
38.67500 216.000
38.72000 234.000
38.76500 229.000
38.81000 250.000
38.85500 225.000
38.90000 221.000
38.94500 216.000
38.99000 223.000
39.03500 238.000
39.08000 218.000
39.12500 239.000
39.17000 249.000
39.21500 234.000
39.26000 229.000
39.30500 229.000
39.35000 223.000
39.39500 238.000
39.44000 247.000
39.48500 244.000
39.53000 223.000
39.57500 248.000
39.62000 219.000
39.66500 212.000
39.71000 228.000
39.75500 221.000
39.80000 213.000
39.84500 222.000
39.89000 235.000
39.93500 255.000
39.98000 216.000
40.02500 236.000
40.07000 225.000
40.11500 237.000
40.16000 201.000
40.20500 243.000
40.25000 219.000
40.29500 223.000
40.34000 200.000
40.38500 212.000
40.43000 231.000
40.47500 220.000
40.52000 224.000
40.56500 219.000
40.61000 214.000
40.65500 211.000
40.70000 195.000
40.74500 198.000
40.79000 208.000
40.83500 220.000
40.88000 217.000
40.92500 201.000
40.97000 212.000
41.01500 209.000
41.06000 214.000
41.10500 205.000
41.15000 214.000
41.19500 216.000
41.24000 201.000
41.28500 212.000
41.33000 207.000
41.37500 211.000
41.42000 197.000
41.46500 211.000
41.51000 208.000
41.55500 227.000
41.60000 217.000
41.64500 260.000
41.69000 230.000
41.73500 234.000
41.78000 246.000
41.82500 222.000
41.87000 219.000
41.91500 209.000
41.96000 200.000
42.00500 189.000
42.05000 203.000
42.09500 197.000
42.14000 190.000
42.18500 176.000
42.23000 191.000
42.27500 197.000
42.32000 230.000
42.36500 236.000
42.41000 233.000
42.45500 233.000
42.50000 232.000
42.54500 207.000
42.59000 216.000
42.63500 203.000
42.68000 213.000
42.72500 216.000
42.77000 229.000
42.81500 200.000
42.86000 264.000
42.90500 209.000
42.95000 248.000
42.99500 242.000
43.04000 241.000
43.08500 249.000
43.13000 261.000
43.17500 254.000
43.22000 246.000
43.26500 268.000
43.31000 246.000
43.35500 251.000
43.40000 228.000
43.44500 208.000
43.49000 220.000
43.53500 223.000
43.58000 215.000
43.62500 214.000
43.67000 194.000
43.71500 199.000
43.76000 218.000
43.80500 200.000
43.85000 214.000
43.89500 197.000
43.94000 204.000
43.98500 193.000
44.03000 177.000
44.07500 202.000
44.12000 191.000
44.16500 216.000
44.21000 204.000
44.25500 207.000
44.30000 198.000
44.34500 195.000
44.39000 208.000
44.43500 204.000
44.48000 189.000
44.52500 209.000
44.57000 235.000
44.61500 230.000
44.66000 207.000
44.70500 215.000
44.75000 165.000
44.79500 204.000
44.84000 181.000
44.88500 198.000
44.93000 218.000
44.97500 229.000
45.02000 194.000
45.06500 208.000
45.11000 245.000
45.15500 227.000
45.20000 217.000
45.24500 198.000
45.29000 237.000
45.33500 216.000
45.38000 225.000
45.42500 212.000
45.47000 213.000
45.51500 191.000
45.56000 175.000
45.60500 210.000
45.65000 196.000
45.69500 225.000
45.74000 201.000
45.78500 215.000
45.83000 270.000
45.87500 250.000
45.92000 275.000
45.96500 239.000
46.01000 229.000
46.05500 220.000
46.10000 214.000
46.14500 199.000
46.19000 229.000
46.23500 199.000
46.28000 214.000
46.32500 173.000
46.37000 177.000
46.41500 174.000
46.46000 196.000
46.50500 190.000
46.55000 196.000
46.59500 184.000
46.64000 172.000
46.68500 180.000
46.73000 197.000
46.77500 171.000
46.82000 186.000
46.86500 187.000
46.91000 187.000
46.95500 197.000
47.00000 211.000
47.04500 197.000
47.09000 218.000
47.13500 216.000
47.18000 194.000
47.22500 225.000
47.27000 204.000
47.31500 182.000
47.36000 200.000
47.40500 174.000
47.45000 169.000
47.49500 177.000
47.54000 179.000
47.58500 186.000
47.63000 190.000
47.67500 193.000
47.72000 189.000
47.76500 160.000
47.81000 162.000
47.85500 179.000
47.90000 178.000
47.94500 173.000
47.99000 167.000
48.03500 180.000
48.08000 172.000
48.12500 181.000
48.17000 190.000
48.21500 189.000
48.26000 188.000
48.30500 185.000
48.35000 200.000
48.39500 183.000
48.44000 199.000
48.48500 208.000
48.53000 203.000
48.57500 202.000
48.62000 184.000
48.66500 195.000
48.71000 186.000
48.75500 207.000
48.80000 218.000
48.84500 213.000
48.89000 231.000
48.93500 223.000
48.98000 199.000
49.02500 217.000
49.07000 218.000
49.11500 220.000
49.16000 212.000
49.20500 238.000
49.25000 226.000
49.29500 224.000
49.34000 210.000
49.38500 194.000
49.43000 198.000
49.47500 208.000
49.52000 212.000
49.56500 173.000
49.61000 194.000
49.65500 197.000
49.70000 198.000
49.74500 187.000
49.79000 179.000
49.83500 182.000
49.88000 171.000
49.92500 181.000
49.97000 186.000
50.01500 180.000
50.06000 182.000
50.10500 173.000
50.15000 179.000
50.19500 184.000
50.24000 176.000
50.28500 188.000
50.33000 198.000
50.37500 185.000
50.42000 179.000
50.46500 181.000
50.51000 204.000
50.55500 186.000
50.60000 197.000
50.64500 190.000
50.69000 199.000
50.73500 194.000
50.78000 195.000
50.82500 200.000
50.87000 215.000
50.91500 192.000
50.96000 217.000
51.00500 180.000
51.05000 181.000
51.09500 236.000
51.14000 182.000
51.18500 207.000
51.23000 194.000
51.27500 201.000
51.32000 199.000
51.36500 182.000
51.41000 191.000
51.45500 207.000
51.50000 186.000
51.54500 187.000
51.59000 200.000
51.63500 186.000
51.68000 195.000
51.72500 180.000
51.77000 179.000
51.81500 179.000
51.86000 184.000
51.90500 186.000
51.95000 206.000
51.99500 198.000
52.04000 185.000
52.08500 183.000
52.13000 185.000
52.17500 188.000
52.22000 186.000
52.26500 175.000
52.31000 170.000
52.35500 179.000
52.40000 169.000
52.44500 196.000
52.49000 192.000
52.53500 182.000
52.58000 203.000
52.62500 186.000
52.67000 177.000
52.71500 186.000
52.76000 195.000
52.80500 187.000
52.85000 166.000
52.89500 201.000
52.94000 185.000
52.98500 201.000
53.03000 200.000
53.07500 187.000
53.12000 199.000
53.16500 221.000
53.21000 211.000
53.25500 208.000
53.30000 218.000
53.34500 194.000
53.39000 193.000
53.43500 198.000
53.48000 208.000
53.52500 204.000
53.57000 212.000
53.61500 186.000
53.66000 168.000
53.70500 173.000
53.75000 176.000
53.79500 160.000
53.84000 182.000
53.88500 162.000
53.93000 156.000
53.97500 159.000
54.02000 143.000
54.06500 180.000
54.11000 173.000
54.15500 153.000
54.20000 161.000
54.24500 158.000
54.29000 159.000
54.33500 179.000
54.38000 166.000
54.42500 179.000
54.47000 160.000
54.51500 150.000
54.56000 151.000
54.60500 163.000
54.65000 167.000
54.69500 159.000
54.74000 154.000
54.78500 151.000
54.83000 152.000
54.87500 168.000
54.92000 178.000
54.96500 147.000
55.01000 162.000
55.05500 177.000
55.10000 176.000
55.14500 149.000
55.19000 169.000
55.23500 164.000
55.28000 176.000
55.32500 187.000
55.37000 175.000
55.41500 181.000
55.46000 199.000
55.50500 174.000
55.55000 179.000
55.59500 210.000
55.64000 205.000
55.68500 201.000
55.73000 212.000
55.77500 195.000
55.82000 225.000
55.86500 215.000
55.91000 207.000
55.95500 174.000
56.00000 204.000
56.04500 179.000
56.09000 172.000
56.13500 207.000
56.18000 187.000
56.22500 183.000
56.27000 173.000
56.31500 184.000
56.36000 178.000
56.40500 191.000
56.45000 179.000
56.49500 180.000
56.54000 182.000
56.58500 190.000
56.63000 186.000
56.67500 168.000
56.72000 185.000
56.76500 175.000
56.81000 183.000
56.85500 177.000
56.90000 204.000
56.94500 219.000
56.99000 214.000
57.03500 193.000
57.08000 227.000
57.12500 219.000
57.17000 205.000
57.21500 253.000
57.26000 236.000
57.30500 237.000
57.35000 193.000
57.39500 204.000
57.44000 184.000
57.48500 179.000
57.53000 191.000
57.57500 201.000
57.62000 174.000
57.66500 168.000
57.71000 151.000
57.75500 175.000
57.80000 164.000
57.84500 170.000
57.89000 180.000
57.93500 169.000
57.98000 164.000
58.02500 166.000
58.07000 175.000
58.11500 162.000
58.16000 159.000
58.20500 149.000
58.25000 177.000
58.29500 160.000
58.34000 169.000
58.38500 158.000
58.43000 188.000
58.47500 174.000
58.52000 179.000
58.56500 189.000
58.61000 175.000
58.65500 176.000
58.70000 164.000
58.74500 149.000
58.79000 168.000
58.83500 161.000
58.88000 144.000
58.92500 180.000
58.97000 179.000
59.01500 169.000
59.06000 149.000
59.10500 146.000
59.15000 158.000
59.19500 151.000
59.24000 159.000
59.28500 142.000
59.33000 168.000
59.37500 148.000
59.42000 143.000
59.46500 130.000
59.51000 172.000
59.55500 155.000
59.60000 147.000
59.64500 152.000
59.69000 154.000
59.73500 148.000
59.78000 138.000
59.82500 155.000
59.87000 147.000
59.91500 132.000
59.96000 160.000
60.00500 126.000
60.05000 153.000
60.09500 163.000
60.14000 133.000
60.18500 166.000
60.23000 157.000
60.27500 155.000
60.32000 139.000
60.36500 138.000
60.41000 157.000
60.45500 137.000
60.50000 144.000
60.54500 182.000
60.59000 173.000
60.63500 160.000
60.68000 149.000
60.72500 153.000
60.77000 162.000
60.81500 168.000
60.86000 148.000
60.90500 148.000
60.95000 148.000
60.99500 148.000
61.04000 163.000
61.08500 151.000
61.13000 135.000
61.17500 141.000
61.22000 142.000
61.26500 169.000
61.31000 140.000
61.35500 162.000
61.40000 135.000
61.44500 145.000
61.49000 122.000
61.53500 137.000
61.58000 137.000
61.62500 140.000
61.67000 136.000
61.71500 144.000
61.76000 149.000
61.80500 137.000
61.85000 121.000
61.89500 127.000
61.94000 153.000
61.98500 155.000