File: ISoD/xrd_data/HSC094_ungew.xy
2.00000 0.000
2.04500 0.000
2.09000 1.000
2.13500 2.000
2.18000 0.000
2.22500 0.000
2.27000 0.000
2.31500 0.000
2.36000 0.000
2.40500 1.000
2.45000 0.000
2.49500 0.000
2.54000 1.000
2.58500 0.000
2.63000 0.000
2.67500 1.000
2.72000 1.000
2.76500 1.000
2.81000 1.000
2.85500 0.000
2.90000 1.000
2.94500 0.000
2.99000 1.000
3.03500 0.000
3.08000 2.000
3.12500 10.000
3.17000 13.000
3.21500 12.000
3.26000 14.000
3.30500 19.000
3.35000 12.000
3.39500 13.000
3.44000 17.000
3.48500 17.000
3.53000 17.000
3.57500 14.000
3.62000 17.000
3.66500 13.000
3.71000 9.000
3.75500 15.000
3.80000 10.000
3.84500 13.000
3.89000 13.000
3.93500 19.000
3.98000 8.000
4.02500 11.000
4.07000 11.000
4.11500 15.000
4.16000 13.000
4.20500 14.000
4.25000 12.000
4.29500 9.000
4.34000 17.000
4.38500 17.000
4.43000 13.000
4.47500 18.000
4.52000 22.000
4.56500 14.000
4.61000 10.000
4.65500 16.000
4.70000 25.000
4.74500 14.000
4.79000 15.000
4.83500 9.000
4.88000 20.000
4.92500 17.000
4.97000 21.000
5.01500 14.000
5.06000 14.000
5.10500 17.000
5.15000 10.000
5.19500 13.000
5.24000 13.000
5.28500 12.000
5.33000 19.000
5.37500 16.000
5.42000 13.000
5.46500 8.000
5.51000 12.000
5.55500 20.000
5.60000 17.000
5.64500 14.000
5.69000 16.000
5.73500 11.000
5.78000 15.000
5.82500 16.000
5.87000 20.000
5.91500 22.000
5.96000 16.000
6.00500 20.000
6.05000 14.000
6.09500 12.000
6.14000 15.000
6.18500 10.000
6.23000 9.000
6.27500 13.000
6.32000 18.000
6.36500 14.000
6.41000 16.000
6.45500 16.000
6.50000 18.000
6.54500 13.000
6.59000 11.000
6.63500 12.000
6.68000 21.000
6.72500 12.000
6.77000 17.000
6.81500 16.000
6.86000 13.000
6.90500 16.000
6.95000 12.000
6.99500 17.000
7.04000 18.000
7.08500 17.000
7.13000 12.000
7.17500 11.000
7.22000 12.000
7.26500 17.000
7.31000 16.000
7.35500 13.000
7.40000 14.000
7.44500 16.000
7.49000 21.000
7.53500 14.000
7.58000 11.000
7.62500 15.000
7.67000 21.000
7.71500 16.000
7.76000 15.000
7.80500 15.000
7.85000 18.000
7.89500 15.000
7.94000 11.000
7.98500 14.000
8.03000 10.000
8.07500 14.000
8.12000 15.000
8.16500 17.000
8.21000 23.000
8.25500 17.000
8.30000 13.000
8.34500 16.000
8.39000 16.000
8.43500 15.000
8.48000 14.000
8.52500 19.000
8.57000 18.000
8.61500 20.000
8.66000 16.000
8.70500 11.000
8.75000 13.000
8.79500 18.000
8.84000 17.000
8.88500 26.000
8.93000 19.000
8.97500 34.000
9.02000 30.000
9.06500 18.000
9.11000 15.000
9.15500 7.000
9.20000 21.000
9.24500 16.000
9.29000 14.000
9.33500 16.000
9.38000 17.000
9.42500 16.000
9.47000 20.000
9.51500 21.000
9.56000 13.000
9.60500 17.000
9.65000 16.000
9.69500 12.000
9.74000 18.000
9.78500 12.000
9.83000 20.000
9.87500 20.000
9.92000 17.000
9.96500 18.000
10.01000 14.000
10.05500 14.000
10.10000 20.000
10.14500 12.000
10.19000 14.000
10.23500 12.000
10.28000 18.000
10.32500 15.000
10.37000 15.000
10.41500 16.000
10.46000 23.000
10.50500 33.000
10.55000 30.000
10.59500 28.000
10.64000 16.000
10.68500 18.000
10.73000 17.000
10.77500 19.000
10.82000 16.000
10.86500 11.000
10.91000 11.000
10.95500 12.000
11.00000 12.000
11.04500 12.000
11.09000 18.000
11.13500 16.000
11.18000 14.000
11.22500 18.000
11.27000 16.000
11.31500 16.000
11.36000 15.000
11.40500 17.000
11.45000 22.000
11.49500 24.000
11.54000 32.000
11.58500 47.000
11.63000 61.000
11.67500 90.000
11.72000 60.000
11.76500 27.000
11.81000 11.000
11.85500 12.000
11.90000 11.000
11.94500 15.000
11.99000 12.000
12.03500 13.000
12.08000 14.000
12.12500 17.000
12.17000 15.000
12.21500 17.000
12.26000 23.000
12.30500 12.000
12.35000 28.000
12.39500 11.000
12.44000 19.000
12.48500 14.000
12.53000 14.000
12.57500 19.000
12.62000 14.000
12.66500 15.000
12.71000 15.000
12.75500 17.000
12.80000 19.000
12.84500 10.000
12.89000 17.000
12.93500 26.000
12.98000 28.000
13.02500 41.000
13.07000 21.000
13.11500 21.000
13.16000 25.000
13.20500 18.000
13.25000 23.000
13.29500 21.000
13.34000 19.000
13.38500 29.000
13.43000 16.000
13.47500 18.000
13.52000 16.000
13.56500 18.000
13.61000 17.000
13.65500 15.000
13.70000 12.000
13.74500 24.000
13.79000 14.000
13.83500 13.000
13.88000 18.000
13.92500 19.000
13.97000 17.000
14.01500 16.000
14.06000 20.000
14.10500 18.000
14.15000 20.000
14.19500 21.000
14.24000 19.000
14.28500 21.000
14.33000 17.000
14.37500 13.000
14.42000 16.000
14.46500 16.000
14.51000 22.000
14.55500 18.000
14.60000 25.000
14.64500 21.000
14.69000 22.000
14.73500 23.000
14.78000 38.000
14.82500 55.000
14.87000 100.000
14.91500 170.000
14.96000 324.000
15.00500 510.000
15.05000 97.000
15.09500 38.000
15.14000 17.000
15.18500 20.000
15.23000 28.000
15.27500 13.000
15.32000 13.000
15.36500 18.000
15.41000 15.000
15.45500 22.000
15.50000 15.000
15.54500 16.000
15.59000 15.000
15.63500 15.000
15.68000 14.000
15.72500 15.000
15.77000 15.000
15.81500 20.000
15.86000 19.000
15.90500 14.000
15.95000 21.000
15.99500 25.000
16.04000 24.000
16.08500 26.000
16.13000 27.000
16.17500 18.000
16.22000 12.000
16.26500 17.000
16.31000 17.000
16.35500 15.000
16.40000 21.000
16.44500 12.000
16.49000 14.000
16.53500 18.000
16.58000 19.000
16.62500 21.000
16.67000 29.000
16.71500 19.000
16.76000 17.000
16.80500 17.000
16.85000 15.000
16.89500 11.000
16.94000 15.000
16.98500 17.000
17.03000 18.000
17.07500 17.000
17.12000 15.000
17.16500 8.000
17.21000 15.000
17.25500 11.000
17.30000 13.000
17.34500 14.000
17.39000 15.000
17.43500 17.000
17.48000 17.000
17.52500 15.000
17.57000 16.000
17.61500 17.000
17.66000 15.000
17.70500 15.000
17.75000 13.000
17.79500 13.000
17.84000 9.000
17.88500 19.000
17.93000 17.000
17.97500 23.000
18.02000 33.000
18.06500 37.000
18.11000 29.000
18.15500 22.000
18.20000 13.000
18.24500 20.000
18.29000 14.000
18.33500 16.000
18.38000 16.000
18.42500 11.000
18.47000 13.000
18.51500 14.000
18.56000 14.000
18.60500 16.000
18.65000 14.000
18.69500 20.000
18.74000 17.000
18.78500 20.000
18.83000 16.000
18.87500 16.000
18.92000 20.000
18.96500 19.000
19.01000 18.000
19.05500 9.000
19.10000 17.000
19.14500 17.000
19.19000 14.000
19.23500 14.000
19.28000 21.000
19.32500 16.000
19.37000 12.000
19.41500 11.000
19.46000 17.000
19.50500 24.000
19.55000 25.000
19.59500 28.000
19.64000 25.000
19.68500 22.000
19.73000 13.000
19.77500 13.000
19.82000 16.000
19.86500 16.000
19.91000 18.000
19.95500 16.000
20.00000 23.000
20.04500 14.000
20.09000 16.000
20.13500 13.000
20.18000 14.000
20.22500 13.000
20.27000 17.000
20.31500 16.000
20.36000 15.000
20.40500 14.000
20.45000 12.000
20.49500 15.000
20.54000 14.000
20.58500 19.000
20.63000 18.000
20.67500 20.000
20.72000 16.000
20.76500 16.000
20.81000 13.000
20.85500 15.000
20.90000 23.000
20.94500 23.000
20.99000 16.000
21.03500 22.000
21.08000 14.000
21.12500 19.000
21.17000 23.000
21.21500 32.000
21.26000 27.000
21.30500 26.000
21.35000 22.000
21.39500 27.000
21.44000 53.000
21.48500 60.000
21.53000 78.000
21.57500 94.000
21.62000 89.000
21.66500 34.000
21.71000 25.000
21.75500 18.000
21.80000 22.000
21.84500 16.000
21.89000 23.000
21.93500 12.000
21.98000 16.000
22.02500 12.000
22.07000 16.000
22.11500 13.000
22.16000 14.000
22.20500 15.000
22.25000 16.000
22.29500 19.000
22.34000 12.000
22.38500 18.000
22.43000 20.000
22.47500 23.000
22.52000 15.000
22.56500 23.000
22.61000 17.000
22.65500 17.000
22.70000 18.000
22.74500 15.000
22.79000 23.000
22.83500 18.000
22.88000 17.000
22.92500 14.000
22.97000 22.000
23.01500 11.000
23.06000 14.000
23.10500 21.000
23.15000 23.000
23.19500 17.000
23.24000 18.000
23.28500 17.000
23.33000 15.000
23.37500 16.000
23.42000 21.000
23.46500 19.000
23.51000 19.000
23.55500 17.000
23.60000 17.000
23.64500 13.000
23.69000 13.000
23.73500 12.000
23.78000 22.000
23.82500 13.000
23.87000 17.000
23.91500 14.000
23.96000 13.000
24.00500 19.000
24.05000 14.000
24.09500 20.000
24.14000 12.000
24.18500 18.000
24.23000 24.000
24.27500 17.000
24.32000 16.000
24.36500 19.000
24.41000 19.000
24.45500 27.000
24.50000 26.000
24.54500 12.000
24.59000 18.000
24.63500 16.000
24.68000 20.000
24.72500 21.000
24.77000 18.000
24.81500 20.000
24.86000 20.000
24.90500 23.000
24.95000 19.000
24.99500 21.000
25.04000 18.000
25.08500 22.000
25.13000 17.000
25.17500 15.000
25.22000 21.000
25.26500 11.000
25.31000 19.000
25.35500 9.000
25.40000 14.000
25.44500 16.000
25.49000 20.000
25.53500 17.000
25.58000 11.000
25.62500 27.000
25.67000 20.000
25.71500 23.000
25.76000 18.000
25.80500 15.000
25.85000 12.000
25.89500 25.000
25.94000 23.000
25.98500 27.000
26.03000 52.000
26.07500 90.000
26.12000 150.000
26.16500 85.000
26.21000 51.000
26.25500 21.000
26.30000 15.000
26.34500 24.000
26.39000 22.000
26.43500 20.000
26.48000 20.000
26.52500 23.000
26.57000 15.000
26.61500 18.000
26.66000 21.000
26.70500 19.000
26.75000 18.000
26.79500 24.000
26.84000 16.000
26.88500 19.000
26.93000 21.000
26.97500 22.000
27.02000 23.000
27.06500 26.000
27.11000 28.000
27.15500 29.000
27.20000 25.000
27.24500 23.000
27.29000 25.000
27.33500 21.000
27.38000 23.000
27.42500 24.000
27.47000 24.000
27.51500 36.000
27.56000 36.000
27.60500 36.000
27.65000 36.000
27.69500 32.000
27.74000 30.000
27.78500 26.000
27.83000 30.000
27.87500 30.000
27.92000 24.000
27.96500 28.000
28.01000 27.000
28.05500 32.000
28.10000 30.000
28.14500 45.000
28.19000 86.000
28.23500 262.000
28.28000 745.000
28.32500 2129.000
28.37000 1818.000
28.41500 283.000
28.46000 85.000
28.50500 49.000
28.55000 48.000
28.59500 42.000
28.64000 35.000
28.68500 26.000
28.73000 27.000
28.77500 29.000
28.82000 22.000
28.86500 24.000
28.91000 30.000
28.95500 31.000
29.00000 28.000
29.04500 16.000
29.09000 19.000
29.13500 28.000
29.18000 19.000
29.22500 16.000
29.27000 21.000
29.31500 24.000
29.36000 16.000
29.40500 22.000
29.45000 13.000
29.49500 19.000
29.54000 20.000
29.58500 22.000
29.63000 19.000
29.67500 15.000
29.72000 17.000
29.76500 25.000
29.81000 21.000
29.85500 19.000
29.90000 25.000
29.94500 29.000
29.99000 37.000
30.03500 52.000
30.08000 82.000
30.12500 57.000
30.17000 27.000
30.21500 46.000
30.26000 44.000
30.30500 34.000
30.35000 31.000
30.39500 36.000
30.44000 21.000
30.48500 18.000
30.53000 24.000
30.57500 23.000
30.62000 26.000
30.66500 22.000
30.71000 16.000
30.75500 18.000
30.80000 27.000
30.84500 24.000
30.89000 20.000
30.93500 21.000
30.98000 21.000
31.02500 20.000
31.07000 23.000
31.11500 34.000
31.16000 24.000
31.20500 22.000
31.25000 21.000
31.29500 24.000
31.34000 21.000
31.38500 31.000
31.43000 26.000
31.47500 21.000
31.52000 23.000
31.56500 24.000
31.61000 39.000
31.65500 36.000
31.70000 50.000
31.74500 49.000
31.79000 73.000
31.83500 88.000
31.88000 66.000
31.92500 45.000
31.97000 28.000
32.01500 20.000
32.06000 18.000
32.10500 26.000
32.15000 16.000
32.19500 24.000
32.24000 21.000
32.28500 18.000
32.33000 17.000
32.37500 24.000
32.42000 17.000
32.46500 43.000
32.51000 36.000
32.55500 48.000
32.60000 29.000
32.64500 21.000
32.69000 21.000
32.73500 24.000
32.78000 21.000
32.82500 28.000
32.87000 20.000
32.91500 21.000
32.96000 20.000
33.00500 27.000
33.05000 19.000
33.09500 28.000
33.14000 24.000
33.18500 24.000
33.23000 25.000
33.27500 28.000
33.32000 22.000
33.36500 23.000
33.41000 25.000
33.45500 32.000
33.50000 39.000
33.54500 40.000
33.59000 44.000
33.63500 51.000
33.68000 63.000
33.72500 106.000
33.77000 146.000
33.81500 209.000
33.86000 387.000
33.90500 390.000
33.95000 216.000
33.99500 100.000
34.04000 66.000
34.08500 45.000
34.13000 42.000
34.17500 40.000
34.22000 32.000
34.26500 28.000
34.31000 31.000
34.35500 22.000
34.40000 24.000
34.44500 25.000
34.49000 26.000
34.53500 24.000
34.58000 26.000
34.62500 28.000
34.67000 27.000
34.71500 20.000
34.76000 25.000
34.80500 29.000
34.85000 25.000
34.89500 29.000
34.94000 30.000
34.98500 25.000
35.03000 35.000
35.07500 36.000
35.12000 32.000
35.16500 24.000
35.21000 30.000
35.25500 26.000
35.30000 27.000
35.34500 24.000
35.39000 21.000
35.43500 20.000
35.48000 27.000
35.52500 32.000
35.57000 32.000
35.61500 28.000
35.66000 19.000
35.70500 15.000
35.75000 17.000
35.79500 25.000
35.84000 14.000
35.88500 19.000
35.93000 16.000
35.97500 18.000
36.02000 17.000
36.06500 24.000
36.11000 24.000
36.15500 24.000
36.20000 27.000
36.24500 27.000
36.29000 24.000
36.33500 23.000
36.38000 21.000
36.42500 18.000
36.47000 22.000
36.51500 20.000
36.56000 20.000
36.60500 11.000
36.65000 14.000
36.69500 22.000
36.74000 24.000
36.78500 27.000
36.83000 15.000
36.87500 21.000
36.92000 25.000
36.96500 24.000
37.01000 26.000
37.05500 12.000
37.10000 24.000
37.14500 20.000
37.19000 14.000
37.23500 20.000
37.28000 14.000
37.32500 17.000
37.37000 26.000
37.41500 22.000
37.46000 30.000
37.50500 26.000
37.55000 17.000
37.59500 25.000
37.64000 26.000
37.68500 33.000
37.73000 24.000
37.77500 16.000
37.82000 26.000
37.86500 18.000
37.91000 25.000
37.95500 21.000
38.00000 22.000
38.04500 21.000
38.09000 34.000
38.13500 44.000
38.18000 44.000
38.22500 40.000
38.27000 37.000
38.31500 34.000
38.36000 25.000
38.40500 28.000
38.45000 23.000
38.49500 16.000
38.54000 23.000
38.58500 17.000
38.63000 21.000
38.67500 21.000
38.72000 14.000
38.76500 16.000
38.81000 18.000
38.85500 13.000
38.90000 21.000
38.94500 19.000
38.99000 17.000
39.03500 20.000
39.08000 16.000
39.12500 19.000
39.17000 23.000
39.21500 26.000
39.26000 27.000
39.30500 26.000
39.35000 19.000
39.39500 17.000
39.44000 30.000
39.48500 22.000
39.53000 22.000
39.57500 21.000
39.62000 22.000
39.66500 23.000
39.71000 19.000
39.75500 21.000
39.80000 32.000
39.84500 31.000
39.89000 23.000
39.93500 29.000
39.98000 28.000
40.02500 27.000
40.07000 31.000
40.11500 25.000
40.16000 41.000
40.20500 44.000
40.25000 55.000
40.29500 75.000
40.34000 93.000
40.38500 185.000
40.43000 398.000
40.47500 925.000
40.52000 1424.000
40.56500 759.000
40.61000 255.000
40.65500 104.000
40.70000 57.000
40.74500 53.000
40.79000 41.000
40.83500 37.000
40.88000 29.000
40.92500 31.000
40.97000 39.000
41.01500 26.000
41.06000 27.000
41.10500 17.000
41.15000 28.000
41.19500 24.000
41.24000 23.000
41.28500 23.000
41.33000 35.000
41.37500 34.000
41.42000 22.000
41.46500 27.000
41.51000 22.000
41.55500 24.000
41.60000 29.000
41.64500 19.000
41.69000 24.000
41.73500 25.000
41.78000 27.000
41.82500 25.000
41.87000 20.000
41.91500 27.000
41.96000 24.000
42.00500 20.000
42.05000 20.000
42.09500 22.000
42.14000 18.000
42.18500 23.000
42.23000 28.000
42.27500 27.000
42.32000 17.000
42.36500 26.000
42.41000 27.000
42.45500 27.000
42.50000 17.000
42.54500 24.000
42.59000 20.000
42.63500 26.000
42.68000 31.000
42.72500 22.000
42.77000 25.000
42.81500 38.000
42.86000 30.000
42.90500 33.000
42.95000 35.000
42.99500 32.000
43.04000 44.000
43.08500 63.000
43.13000 98.000
43.17500 120.000
43.22000 125.000
43.26500 74.000
43.31000 50.000
43.35500 35.000
43.40000 36.000
43.44500 37.000
43.49000 40.000
43.53500 32.000
43.58000 33.000
43.62500 27.000
43.67000 21.000
43.71500 26.000
43.76000 27.000
43.80500 24.000
43.85000 28.000
43.89500 32.000
43.94000 25.000
43.98500 35.000
44.03000 47.000
44.07500 62.000
44.12000 103.000
44.16500 117.000
44.21000 130.000
44.25500 90.000
44.30000 79.000
44.34500 58.000
44.39000 41.000
44.43500 32.000
44.48000 24.000
44.52500 32.000
44.57000 29.000
44.61500 30.000
44.66000 40.000
44.70500 39.000
44.75000 38.000
44.79500 29.000
44.84000 23.000
44.88500 25.000
44.93000 18.000
44.97500 19.000
45.02000 20.000
45.06500 14.000
45.11000 22.000
45.15500 23.000
45.20000 16.000
45.24500 23.000
45.29000 23.000
45.33500 26.000
45.38000 15.000
45.42500 22.000
45.47000 38.000
45.51500 39.000
45.56000 36.000
45.60500 28.000
45.65000 28.000
45.69500 27.000
45.74000 21.000
45.78500 20.000
45.83000 18.000
45.87500 18.000
45.92000 27.000
45.96500 25.000
46.01000 36.000
46.05500 41.000
46.10000 52.000
46.14500 36.000
46.19000 21.000
46.23500 18.000
46.28000 17.000
46.32500 19.000
46.37000 20.000
46.41500 30.000
46.46000 18.000
46.50500 22.000
46.55000 22.000
46.59500 30.000
46.64000 24.000
46.68500 26.000
46.73000 21.000
46.77500 25.000
46.82000 25.000
46.86500 31.000
46.91000 30.000
46.95500 22.000
47.00000 23.000
47.04500 18.000
47.09000 25.000
47.13500 21.000
47.18000 17.000
47.22500 20.000
47.27000 25.000
47.31500 19.000
47.36000 15.000
47.40500 22.000
47.45000 24.000
47.49500 26.000
47.54000 28.000
47.58500 24.000
47.63000 27.000
47.67500 20.000
47.72000 16.000
47.76500 30.000
47.81000 22.000
47.85500 32.000
47.90000 37.000
47.94500 41.000
47.99000 31.000
48.03500 29.000
48.08000 23.000
48.12500 30.000
48.17000 26.000
48.21500 27.000
48.26000 29.000
48.30500 24.000
48.35000 26.000
48.39500 20.000
48.44000 28.000
48.48500 30.000
48.53000 33.000
48.57500 26.000
48.62000 30.000
48.66500 36.000
48.71000 28.000
48.75500 36.000
48.80000 25.000
48.84500 24.000
48.89000 18.000
48.93500 24.000
48.98000 19.000
49.02500 20.000
49.07000 24.000
49.11500 24.000
49.16000 28.000
49.20500 20.000
49.25000 27.000
49.29500 22.000
49.34000 36.000
49.38500 30.000
49.43000 40.000
49.47500 45.000
49.52000 35.000
49.56500 23.000
49.61000 29.000
49.65500 24.000
49.70000 29.000
49.74500 27.000
49.79000 25.000
49.83500 32.000
49.88000 32.000
49.92500 39.000
49.97000 41.000
50.01500 56.000
50.06000 94.000
50.10500 213.000
50.15000 493.000
50.19500 565.000
50.24000 302.000
50.28500 119.000
50.33000 62.000
50.37500 45.000
50.42000 29.000
50.46500 35.000
50.51000 31.000
50.55500 22.000
50.60000 23.000
50.64500 29.000
50.69000 26.000
50.73500 27.000
50.78000 18.000
50.82500 22.000
50.87000 26.000
50.91500 31.000
50.96000 28.000
51.00500 31.000
51.05000 23.000
51.09500 40.000
51.14000 47.000
51.18500 57.000
51.23000 61.000
51.27500 43.000
51.32000 35.000
51.36500 43.000
51.41000 63.000
51.45500 63.000
51.50000 63.000
51.54500 61.000
51.59000 43.000
51.63500 45.000
51.68000 31.000
51.72500 35.000
51.77000 34.000
51.81500 37.000
51.86000 31.000
51.90500 33.000
51.95000 33.000
51.99500 27.000
52.04000 20.000
52.08500 20.000
52.13000 27.000
52.17500 23.000
52.22000 23.000
52.26500 29.000
52.31000 23.000
52.35500 19.000
52.40000 13.000
52.44500 24.000
52.49000 21.000
52.53500 21.000
52.58000 20.000
52.62500 24.000
52.67000 26.000
52.71500 20.000
52.76000 26.000
52.80500 19.000
52.85000 22.000
52.89500 29.000
52.94000 29.000
52.98500 23.000
53.03000 18.000
53.07500 25.000
53.12000 22.000
53.16500 22.000
53.21000 22.000
53.25500 24.000
53.30000 21.000
53.34500 30.000
53.39000 28.000
53.43500 40.000
53.48000 31.000
53.52500 31.000
53.57000 38.000
53.61500 52.000
53.66000 85.000
53.70500 131.000
53.75000 197.000
53.79500 132.000
53.84000 73.000
53.88500 40.000
53.93000 31.000
53.97500 41.000
54.02000 31.000
54.06500 26.000
54.11000 25.000
54.15500 27.000
54.20000 21.000
54.24500 19.000
54.29000 21.000
54.33500 24.000
54.38000 27.000
54.42500 27.000
54.47000 23.000
54.51500 29.000
54.56000 24.000
54.60500 29.000
54.65000 29.000
54.69500 28.000
54.74000 20.000
54.78500 29.000
54.83000 28.000
54.87500 29.000
54.92000 25.000
54.96500 25.000
55.01000 27.000
55.05500 21.000
55.10000 23.000
55.14500 21.000
55.19000 34.000
55.23500 25.000
55.28000 28.000
55.32500 30.000
55.37000 28.000
55.41500 28.000
55.46000 35.000
55.50500 26.000
55.55000 29.000
55.59500 24.000
55.64000 21.000
55.68500 34.000
55.73000 26.000
55.77500 31.000
55.82000 35.000
55.86500 33.000
55.91000 41.000
55.95500 46.000
56.00000 43.000
56.04500 37.000
56.09000 56.000
56.13500 63.000
56.18000 55.000
56.22500 31.000
56.27000 25.000
56.31500 31.000
56.36000 26.000
56.40500 29.000
56.45000 30.000
56.49500 32.000
56.54000 28.000
56.58500 29.000
56.63000 46.000
56.67500 37.000
56.72000 34.000
56.76500 42.000
56.81000 24.000
56.85500 31.000
56.90000 34.000
56.94500 27.000
56.99000 27.000
57.03500 23.000
57.08000 26.000
57.12500 29.000
57.17000 27.000
57.21500 25.000
57.26000 25.000
57.30500 30.000
57.35000 23.000
57.39500 26.000
57.44000 23.000
57.48500 27.000
57.53000 26.000
57.57500 31.000
57.62000 19.000
57.66500 27.000
57.71000 26.000
57.75500 23.000
57.80000 30.000
57.84500 30.000
57.89000 28.000
57.93500 28.000
57.98000 23.000
58.02500 25.000
58.07000 28.000
58.11500 27.000
58.16000 31.000
58.20500 30.000
58.25000 29.000
58.29500 21.000
58.34000 24.000
58.38500 42.000
58.43000 32.000
58.47500 35.000
58.52000 54.000
58.56500 97.000
58.61000 219.000
58.65500 317.000
58.70000 149.000
58.74500 71.000
58.79000 46.000
58.83500 37.000
58.88000 30.000
58.92500 28.000
58.97000 27.000
59.01500 33.000
59.06000 26.000
59.10500 31.000
59.15000 35.000
59.19500 22.000
59.24000 28.000
59.28500 36.000
59.33000 29.000
59.37500 32.000
59.42000 23.000
59.46500 27.000
59.51000 30.000
59.55500 23.000
59.60000 31.000
59.64500 25.000
59.69000 28.000
59.73500 28.000
59.78000 27.000
59.82500 30.000
59.87000 28.000
59.91500 22.000
59.96000 27.000
60.00500 32.000
60.05000 32.000
60.09500 36.000
60.14000 31.000
60.18500 23.000
60.23000 34.000
60.27500 32.000
60.32000 29.000
60.36500 18.000
60.41000 32.000
60.45500 29.000
60.50000 26.000
60.54500 28.000
60.59000 24.000
60.63500 25.000
60.68000 31.000
60.72500 25.000
60.77000 23.000
60.81500 26.000
60.86000 30.000
60.90500 25.000
60.95000 21.000
60.99500 26.000
61.04000 26.000
61.08500 28.000
61.13000 32.000
61.17500 40.000
61.22000 38.000
61.26500 39.000
61.31000 35.000
61.35500 32.000
61.40000 33.000
61.44500 32.000
61.49000 29.000
61.53500 33.000
61.58000 22.000
61.62500 27.000
61.67000 20.000
61.71500 29.000
61.76000 24.000
61.80500 30.000
61.85000 32.000
61.89500 23.000
61.94000 29.000
61.98500 31.000