File: ISoD/xrd_data/HSC010_range_1.xy
2.00000;569.000
2.04500;518.000
2.09000;500.000
2.13500;488.000
2.18000;439.000
2.22500;433.000
2.27000;374.000
2.31500;395.000
2.36000;385.000
2.40500;371.000
2.45000;311.000
2.49500;339.000
2.54000;308.000
2.58500;297.000
2.63000;305.000
2.67500;269.000
2.72000;280.000
2.76500;292.000
2.81000;252.000
2.85500;246.000
2.90000;249.000
2.94500;262.000
2.99000;261.000
3.03500;234.000
3.08000;239.000
3.12500;222.000
3.17000;220.000
3.21500;229.000
3.26000;220.000
3.30500;229.000
3.35000;196.000
3.39500;201.000
3.44000;212.000
3.48500;217.000
3.53000;218.000
3.57500;201.000
3.62000;193.000
3.66500;193.000
3.71000;173.000
3.75500;181.000
3.80000;179.000
3.84500;202.000
3.89000;182.000
3.93500;182.000
3.98000;187.000
4.02500;178.000
4.07000;199.000
4.11500;185.000
4.16000;173.000
4.20500;186.000
4.25000;169.000
4.29500;215.000
4.34000;190.000
4.38500;207.000
4.43000;207.000
4.47500;178.000
4.52000;193.000
4.56500;169.000
4.61000;188.000
4.65500;182.000
4.70000;166.000
4.74500;171.000
4.79000;171.000
4.83500;177.000
4.88000;183.000
4.92500;189.000
4.97000;190.000
5.01500;189.000
5.06000;164.000
5.10500;193.000
5.15000;195.000
5.19500;165.000
5.24000;182.000
5.28500;192.000
5.33000;179.000
5.37500;167.000
5.42000;182.000
5.46500;156.000
5.51000;163.000
5.55500;163.000
5.60000;181.000
5.64500;189.000
5.69000;179.000
5.73500;190.000
5.78000;176.000
5.82500;195.000
5.87000;217.000
5.91500;217.000
5.96000;220.000
6.00500;243.000
6.05000;293.000
6.09500;392.000
6.14000;528.000
6.18500;418.000
6.23000;225.000
6.27500;198.000
6.32000;170.000
6.36500;176.000
6.41000;188.000
6.45500;176.000
6.50000;183.000
6.54500;193.000
6.59000;187.000
6.63500;178.000
6.68000;188.000
6.72500;199.000
6.77000;174.000
6.81500;176.000
6.86000;187.000
6.90500;174.000
6.95000;190.000
6.99500;165.000
7.04000;182.000
7.08500;194.000
7.13000;163.000
7.17500;194.000
7.22000;180.000
7.26500;187.000
7.31000;177.000
7.35500;191.000
7.40000;182.000
7.44500;167.000
7.49000;178.000
7.53500;166.000
7.58000;166.000
7.62500;182.000
7.67000;190.000
7.71500;193.000
7.76000;182.000
7.80500;190.000
7.85000;176.000
7.89500;180.000
7.94000;175.000
7.98500;193.000
8.03000;191.000
8.07500;185.000
8.12000;168.000
8.16500;182.000
8.21000;159.000
8.25500;167.000
8.30000;179.000
8.34500;175.000
8.39000;176.000
8.43500;175.000
8.48000;167.000
8.52500;173.000
8.57000;185.000
8.61500;178.000
8.66000;158.000
8.70500;185.000
8.75000;176.000
8.79500;169.000
8.84000;184.000
8.88500;195.000
8.93000;181.000
8.97500;185.000
9.02000;170.000
9.06500;179.000
9.11000;182.000
9.15500;196.000
9.20000;172.000
9.24500;170.000
9.29000;194.000
9.33500;176.000
9.38000;176.000
9.42500;191.000
9.47000;190.000
9.51500;189.000
9.56000;175.000
9.60500;171.000
9.65000;169.000
9.69500;191.000
9.74000;155.000
9.78500;172.000
9.83000;193.000
9.87500;165.000
9.92000;184.000
9.96500;185.000
10.01000;179.000
10.05500;189.000
10.10000;196.000
10.14500;164.000
10.19000;178.000
10.23500;195.000
10.28000;179.000
10.32500;188.000
10.37000;191.000
10.41500;176.000
10.46000;190.000
10.50500;172.000
10.55000;187.000
10.59500;189.000
10.64000;170.000
10.68500;198.000
10.73000;200.000
10.77500;192.000
10.82000;193.000
10.86500;182.000
10.91000;186.000
10.95500;193.000
11.00000;170.000
11.04500;207.000
11.09000;186.000
11.13500;203.000
11.18000;210.000
11.22500;176.000
11.27000;198.000
11.31500;206.000
11.36000;191.000
11.40500;200.000
11.45000;196.000
11.49500;190.000
11.54000;218.000
11.58500;193.000
11.63000;191.000
11.67500;202.000
11.72000;182.000
11.76500;212.000
11.81000;194.000
11.85500;210.000
11.90000;195.000
11.94500;234.000
11.99000;252.000
12.03500;285.000
12.08000;309.000
12.12500;451.000
12.17000;632.000
12.21500;891.000
12.26000;1120.000
12.30500;1274.000
12.35000;917.000
12.39500;417.000
12.44000;302.000
12.48500;302.000
12.53000;286.000
12.57500;283.000
12.62000;283.000
12.66500;262.000
12.71000;233.000
12.75500;285.000
12.80000;246.000
12.84500;249.000
12.89000;266.000
12.93500;251.000
12.98000;264.000
13.02500;244.000
13.07000;264.000
13.11500;241.000
13.16000;251.000
13.20500;268.000
13.25000;271.000
13.29500;294.000
13.34000;311.000
13.38500;344.000
13.43000;367.000
13.47500;311.000
13.52000;241.000
13.56500;270.000
13.61000;260.000
13.65500;283.000
13.70000;247.000
13.74500;236.000
13.79000;225.000
13.83500;233.000
13.88000;231.000
13.92500;217.000
13.97000;237.000
14.01500;216.000
14.06000;222.000
14.10500;227.000
14.15000;227.000
14.19500;219.000
14.24000;228.000
14.28500;246.000
14.33000;204.000
14.37500;216.000
14.42000;206.000
14.46500;209.000
14.51000;211.000
14.55500;222.000
14.60000;227.000
14.64500;234.000
14.69000;219.000
14.73500;207.000
14.78000;216.000
14.82500;207.000
14.87000;212.000
14.91500;243.000
14.96000;240.000
15.00500;229.000
15.05000;222.000
15.09500;206.000
15.14000;216.000
15.18500;223.000
15.23000;193.000
15.27500;199.000
15.32000;210.000
15.36500;197.000
15.41000;218.000
15.45500;206.000
15.50000;220.000
15.54500;197.000
15.59000;216.000
15.63500;228.000
15.68000;200.000
15.72500;224.000
15.77000;200.000
15.81500;211.000
15.86000;227.000
15.90500;217.000
15.95000;209.000
15.99500;206.000
16.04000;196.000
16.08500;218.000
16.13000;224.000
16.17500;211.000
16.22000;223.000
16.26500;246.000
16.31000;247.000
16.35500;241.000
16.40000;242.000
16.44500;244.000
16.49000;259.000
16.53500;237.000
16.58000;220.000
16.62500;204.000
16.67000;224.000
16.71500;236.000
16.76000;218.000
16.80500;220.000
16.85000;256.000
16.89500;228.000
16.94000;235.000
16.98500;223.000
17.03000;239.000
17.07500;229.000
17.12000;222.000
17.16500;237.000
17.21000;219.000
17.25500;227.000
17.30000;234.000
17.34500;225.000
17.39000;198.000
17.43500;248.000
17.48000;209.000
17.52500;226.000
17.57000;238.000
17.61500;245.000
17.66000;247.000
17.70500;236.000
17.75000;221.000
17.79500;234.000
17.84000;234.000
17.88500;212.000
17.93000;234.000
17.97500;241.000
18.02000;258.000
18.06500;260.000
18.11000;262.000
18.15500;245.000
18.20000;240.000
18.24500;229.000
18.29000;260.000
18.33500;240.000
18.38000;238.000
18.42500;258.000
18.47000;264.000
18.51500;272.000
18.56000;263.000
18.60500;245.000
18.65000;231.000
18.69500;243.000
18.74000;250.000
18.78500;263.000
18.83000;270.000
18.87500;251.000
18.92000;242.000
18.96500;241.000
19.01000;228.000
19.05500;253.000
19.10000;243.000
19.14500;240.000
19.19000;248.000
19.23500;273.000
19.28000;223.000
19.32500;271.000
19.37000;259.000
19.41500;313.000
19.46000;290.000
19.50500;310.000
19.55000;295.000
19.59500;284.000
19.64000;294.000
19.68500;251.000
19.73000;251.000
19.77500;249.000
19.82000;268.000
19.86500;258.000
19.91000;248.000
19.95500;249.000
20.00000;260.000
20.04500;238.000
20.09000;240.000
20.13500;254.000
20.18000;258.000
20.22500;264.000
20.27000;263.000
20.31500;253.000
20.36000;244.000
20.40500;268.000
20.45000;240.000
20.49500;249.000
20.54000;231.000
20.58500;236.000
20.63000;265.000
20.67500;265.000
20.72000;245.000
20.76500;246.000
20.81000;241.000
20.85500;251.000
20.90000;264.000
20.94500;243.000
20.99000;215.000
21.03500;266.000
21.08000;238.000
21.12500;261.000
21.17000;265.000
21.21500;260.000
21.26000;260.000
21.30500;259.000
21.35000;249.000
21.39500;281.000
21.44000;280.000
21.48500;245.000
21.53000;291.000
21.57500;282.000
21.62000;301.000
21.66500;295.000
21.71000;258.000
21.75500;275.000
21.80000;280.000
21.84500;266.000
21.89000;270.000
21.93500;273.000
21.98000;274.000
22.02500;292.000
22.07000;302.000
22.11500;317.000
22.16000;276.000
22.20500;301.000
22.25000;262.000
22.29500;270.000
22.34000;280.000
22.38500;296.000
22.43000;276.000
22.47500;268.000
22.52000;257.000
22.56500;263.000
22.61000;272.000
22.65500;266.000
22.70000;248.000
22.74500;262.000
22.79000;242.000
22.83500;274.000
22.88000;275.000
22.92500;259.000
22.97000;265.000
23.01500;267.000
23.06000;262.000
23.10500;268.000
23.15000;297.000
23.19500;293.000
23.24000;262.000
23.28500;283.000
23.33000;313.000
23.37500;282.000
23.42000;284.000
23.46500;262.000
23.51000;300.000
23.55500;284.000
23.60000;290.000
23.64500;309.000
23.69000;277.000
23.73500;296.000
23.78000;280.000
23.82500;270.000
23.87000;291.000
23.91500;285.000
23.96000;287.000
24.00500;267.000
24.05000;256.000
24.09500;272.000
24.14000;273.000
24.18500;265.000
24.23000;296.000
24.27500;260.000
24.32000;285.000
24.36500;294.000
24.41000;255.000
24.45500;290.000
24.50000;294.000
24.54500;306.000
24.59000;262.000
24.63500;287.000
24.68000;289.000
24.72500;334.000
24.77000;348.000
24.81500;325.000
24.86000;298.000
24.90500;275.000
24.95000;288.000
24.99500;273.000
25.04000;286.000
25.08500;299.000
25.13000;315.000
25.17500;323.000
25.22000;326.000
25.26500;326.000
25.31000;328.000
25.35500;330.000
25.40000;298.000
25.44500;326.000
25.49000;323.000
25.53500;336.000
25.58000;334.000
25.62500;351.000
25.67000;379.000
25.71500;388.000
25.76000;471.000
25.80500;459.000
25.85000;455.000
25.89500;395.000
25.94000;382.000
25.98500;355.000
26.03000;348.000
26.07500;362.000
26.12000;351.000
26.16500;402.000
26.21000;443.000
26.25500;477.000
26.30000;550.000
26.34500;571.000
26.39000;517.000
26.43500;511.000
26.48000;454.000
26.52500;448.000
26.57000;460.000
26.61500;484.000
26.66000;496.000
26.70500;516.000
26.75000;565.000
26.79500;599.000
26.84000;576.000
26.88500;521.000
26.93000;559.000
26.97500;587.000
27.02000;632.000
27.06500;655.000
27.11000;705.000
27.15500;738.000
27.20000;727.000
27.24500;684.000
27.29000;670.000
27.33500;700.000
27.38000;662.000
27.42500;683.000
27.47000;701.000
27.51500;698.000
27.56000;673.000
27.60500;731.000
27.65000;776.000
27.69500;747.000
27.74000;777.000
27.78500;839.000
27.83000;845.000
27.87500;696.000
27.92000;662.000
27.96500;565.000
28.01000;486.000
28.05500;452.000
28.10000;430.000
28.14500;418.000
28.19000;407.000
28.23500;392.000
28.28000;380.000
28.32500;316.000
28.37000;371.000
28.41500;317.000
28.46000;319.000
28.50500;312.000
28.55000;294.000
28.59500;292.000
28.64000;284.000
28.68500;294.000
28.73000;285.000
28.77500;294.000
28.82000;295.000
28.86500;294.000
28.91000;268.000
28.95500;283.000
29.00000;260.000
29.04500;293.000
29.09000;261.000
29.13500;252.000
29.18000;232.000
29.22500;270.000
29.27000;265.000
29.31500;262.000
29.36000;235.000
29.40500;259.000
29.45000;243.000
29.49500;267.000
29.54000;242.000
29.58500;262.000
29.63000;239.000
29.67500;233.000
29.72000;220.000
29.76500;228.000
29.81000;234.000
29.85500;224.000
29.90000;244.000
29.94500;226.000
29.99000;255.000
30.03500;278.000
30.08000;265.000
30.12500;271.000
30.17000;229.000
30.21500;254.000
30.26000;242.000
30.30500;265.000
30.35000;236.000
30.39500;206.000
30.44000;229.000
30.48500;217.000
30.53000;207.000
30.57500;229.000
30.62000;229.000
30.66500;235.000
30.71000;245.000
30.75500;245.000
30.80000;239.000
30.84500;261.000
30.89000;225.000
30.93500;230.000
30.98000;235.000
31.02500;227.000
31.07000;297.000
31.11500;317.000
31.16000;274.000
31.20500;224.000
31.25000;223.000
31.29500;209.000
31.34000;192.000
31.38500;221.000
31.43000;185.000
31.47500;213.000
31.52000;195.000
31.56500;202.000
31.61000;219.000
31.65500;216.000
31.70000;211.000
31.74500;223.000
31.79000;187.000
31.83500;188.000
31.88000;190.000
31.92500;194.000
31.97000;205.000
32.01500;190.000
32.06000;201.000
32.10500;192.000
32.15000;205.000
32.19500;194.000
32.24000;166.000
32.28500;179.000
32.33000;192.000
32.37500;162.000
32.42000;185.000
32.46500;169.000
32.51000;166.000
32.55500;183.000
32.60000;190.000
32.64500;172.000
32.69000;186.000
32.73500;182.000
32.78000;171.000
32.82500;173.000
32.87000;170.000
32.91500;172.000
32.96000;167.000
33.00500;183.000
33.05000;161.000
33.09500;175.000
33.14000;163.000
33.18500;164.000
33.23000;178.000
33.27500;168.000
33.32000;178.000
33.36500;156.000
33.41000;160.000
33.45500;159.000
33.50000;150.000
33.54500;166.000
33.59000;168.000
33.63500;166.000
33.68000;182.000
33.72500;177.000
33.77000;175.000
33.81500;174.000
33.86000;184.000
33.90500;190.000
33.95000;178.000
33.99500;175.000
34.04000;170.000
34.08500;157.000
34.13000;164.000
34.17500;161.000
34.22000;171.000
34.26500;152.000
34.31000;157.000
34.35500;136.000
34.40000;153.000
34.44500;154.000
34.49000;150.000
34.53500;152.000
34.58000;157.000
34.62500;149.000
34.67000;156.000
34.71500;129.000
34.76000;150.000
34.80500;133.000
34.85000;148.000
34.89500;157.000
34.94000;155.000
34.98500;152.000
35.03000;153.000
35.07500;140.000
35.12000;151.000
35.16500;169.000
35.21000;118.000
35.25500;149.000
35.30000;158.000
35.34500;143.000
35.39000;134.000
35.43500;153.000
35.48000;151.000
35.52500;149.000
35.57000;123.000
35.61500;155.000
35.66000;139.000
35.70500;118.000
35.75000;125.000
35.79500;131.000
35.84000;132.000
35.88500;131.000
35.93000;133.000
35.97500;142.000
36.02000;121.000
36.06500;129.000
36.11000;128.000
36.15500;131.000
36.20000;123.000
36.24500;131.000
36.29000;140.000
36.33500;108.000
36.38000;132.000
36.42500;130.000
36.47000;119.000
36.51500;133.000
36.56000;132.000
36.60500;124.000
36.65000;103.000
36.69500;134.000
36.74000;135.000
36.78500;116.000
36.83000;135.000
36.87500;117.000
36.92000;139.000
36.96500;132.000
37.01000;132.000
37.05500;127.000
37.10000;117.000
37.14500;133.000
37.19000;129.000
37.23500;128.000
37.28000;120.000
37.32500;135.000
37.37000;116.000
37.41500;126.000
37.46000;128.000
37.50500;138.000
37.55000;134.000
37.59500;127.000
37.64000;123.000
37.68500;134.000
37.73000;132.000
37.77500;122.000
37.82000;113.000
37.86500;102.000
37.91000;117.000
37.95500;136.000
38.00000;131.000
38.04500;120.000
38.09000;126.000
38.13500;116.000
38.18000;125.000
38.22500;124.000
38.27000;122.000
38.31500;112.000
38.36000;111.000
38.40500;131.000
38.45000;122.000
38.49500;114.000
38.54000;136.000
38.58500;134.000
38.63000;108.000
38.67500;127.000
38.72000;114.000
38.76500;132.000
38.81000;120.000
38.85500;134.000
38.90000;115.000
38.94500;133.000
38.99000;117.000
39.03500;120.000
39.08000;117.000
39.12500;115.000
39.17000;119.000
39.21500;124.000
39.26000;120.000
39.30500;109.000
39.35000;107.000
39.39500;119.000
39.44000;122.000
39.48500;122.000
39.53000;113.000
39.57500;104.000
39.62000;102.000
39.66500;127.000
39.71000;121.000
39.75500;127.000
39.80000;121.000
39.84500;122.000
39.89000;95.000
39.93500;155.000
39.98000;133.000
40.02500;124.000
40.07000;119.000
40.11500;101.000
40.16000;110.000
40.20500;115.000
40.25000;133.000
40.29500;138.000
40.34000;115.000
40.38500;122.000
40.43000;124.000
40.47500;114.000
40.52000;127.000
40.56500;111.000
40.61000;115.000
40.65500;119.000
40.70000;124.000
40.74500;137.000
40.79000;124.000
40.83500;117.000
40.88000;127.000
40.92500;120.000
40.97000;110.000
41.01500;109.000
41.06000;129.000
41.10500;112.000
41.15000;138.000
41.19500;122.000
41.24000;136.000
41.28500;132.000
41.33000;119.000
41.37500;119.000
41.42000;98.000
41.46500;105.000
41.51000;97.000
41.55500;116.000
41.60000;131.000
41.64500;110.000
41.69000;116.000
41.73500;108.000
41.78000;116.000
41.82500;106.000
41.87000;119.000
41.91500;120.000
41.96000;121.000
42.00500;126.000
42.05000;134.000
42.09500;111.000
42.14000;130.000
42.18500;106.000
42.23000;125.000
42.27500;125.000
42.32000;123.000
42.36500;116.000
42.41000;117.000
42.45500;115.000
42.50000;107.000
42.54500;123.000
42.59000;128.000
42.63500;118.000
42.68000;107.000
42.72500;130.000
42.77000;123.000
42.81500;116.000
42.86000;112.000
42.90500;134.000
42.95000;109.000
42.99500;103.000
43.04000;119.000
43.08500;112.000
43.13000;124.000
43.17500;113.000
43.22000;117.000
43.26500;100.000
43.31000;126.000
43.35500;120.000
43.40000;109.000
43.44500;110.000
43.49000;124.000
43.53500;134.000
43.58000;96.000
43.62500;116.000
43.67000;106.000
43.71500;114.000
43.76000;102.000
43.80500;111.000
43.85000;105.000
43.89500;107.000
43.94000;114.000
43.98500;125.000
44.03000;116.000
44.07500;124.000
44.12000;117.000
44.16500;112.000
44.21000;134.000
44.25500;137.000
44.30000;109.000
44.34500;115.000
44.39000;104.000
44.43500;107.000
44.48000;132.000
44.52500;106.000
44.57000;123.000
44.61500;120.000
44.66000;117.000
44.70500;124.000
44.75000;120.000
44.79500;132.000
44.84000;113.000
44.88500;117.000
44.93000;112.000
44.97500;114.000
45.02000;124.000
45.06500;112.000
45.11000;114.000
45.15500;118.000
45.20000;108.000
45.24500;123.000
45.29000;119.000
45.33500;120.000
45.38000;101.000
45.42500;112.000
45.47000;126.000
45.51500;112.000
45.56000;105.000
45.60500;86.000
45.65000;113.000
45.69500;98.000
45.74000;107.000
45.78500;113.000
45.83000;113.000
45.87500;118.000
45.92000;118.000
45.96500;142.000
46.01000;124.000
46.05500;110.000
46.10000;102.000
46.14500;121.000
46.19000;127.000
46.23500;122.000
46.28000;115.000
46.32500;118.000
46.37000;105.000
46.41500;103.000
46.46000;115.000
46.50500;92.000
46.55000;114.000
46.59500;117.000
46.64000;110.000
46.68500;103.000
46.73000;116.000
46.77500;115.000
46.82000;118.000
46.86500;115.000
46.91000;116.000
46.95500;128.000
47.00000;97.000
47.04500;124.000
47.09000;112.000
47.13500;102.000
47.18000;111.000
47.22500;107.000
47.27000;99.000
47.31500;98.000
47.36000;117.000
47.40500;108.000
47.45000;88.000
47.49500;104.000
47.54000;105.000
47.58500;116.000
47.63000;103.000
47.67500;88.000
47.72000;92.000
47.76500;111.000
47.81000;106.000
47.85500;108.000
47.90000;99.000
47.94500;102.000
47.99000;95.000
48.03500;93.000
48.08000;101.000
48.12500;95.000
48.17000;108.000
48.21500;99.000
48.26000;93.000
48.30500;94.000
48.35000;106.000
48.39500;95.000
48.44000;101.000
48.48500;85.000
48.53000;95.000
48.57500;112.000
48.62000;85.000
48.66500;101.000
48.71000;93.000
48.75500;117.000
48.80000;91.000
48.84500;106.000
48.89000;93.000
48.93500;95.000
48.98000;95.000
49.02500;99.000
49.07000;92.000
49.11500;100.000
49.16000;100.000
49.20500;84.000
49.25000;101.000
49.29500;102.000
49.34000;93.000
49.38500;95.000
49.43000;93.000
49.47500;108.000
49.52000;101.000
49.56500;100.000
49.61000;100.000
49.65500;87.000
49.70000;106.000
49.74500;88.000
49.79000;80.000
49.83500;110.000
49.88000;93.000
49.92500;93.000
49.97000;97.000
50.01500;96.000
50.06000;94.000
50.10500;101.000
50.15000;93.000
50.19500;86.000
50.24000;110.000
50.28500;98.000
50.33000;103.000
50.37500;97.000
50.42000;94.000
50.46500;99.000
50.51000;101.000
50.55500;89.000
50.60000;108.000
50.64500;94.000
50.69000;91.000
50.73500;102.000
50.78000;101.000
50.82500;95.000
50.87000;81.000
50.91500;93.000
50.96000;100.000
51.00500;108.000
51.05000;89.000
51.09500;90.000
51.14000;81.000
51.18500;92.000
51.23000;98.000
51.27500;83.000
51.32000;94.000
51.36500;95.000
51.41000;93.000
51.45500;76.000
51.50000;107.000
51.54500;88.000
51.59000;80.000
51.63500;94.000
51.68000;102.000
51.72500;100.000
51.77000;87.000
51.81500;105.000
51.86000;101.000
51.90500;110.000
51.95000;89.000
51.99500;95.000
52.04000;103.000
52.08500;96.000
52.13000;95.000
52.17500;95.000
52.22000;97.000
52.26500;94.000
52.31000;103.000
52.35500;101.000
52.40000;81.000
52.44500;89.000
52.49000;98.000
52.53500;100.000
52.58000;85.000
52.62500;80.000
52.67000;86.000
52.71500;91.000
52.76000;99.000
52.80500;81.000
52.85000;92.000
52.89500;97.000
52.94000;92.000
52.98500;96.000
53.03000;111.000
53.07500;105.000
53.12000;95.000
53.16500;97.000
53.21000;87.000
53.25500;109.000
53.30000;92.000
53.34500;107.000
53.39000;106.000
53.43500;100.000
53.48000;102.000
53.52500;96.000
53.57000;107.000
53.61500;101.000
53.66000;97.000
53.70500;94.000
53.75000;94.000
53.79500;98.000
53.84000;100.000
53.88500;93.000
53.93000;89.000
53.97500;90.000
54.02000;78.000
54.06500;82.000
54.11000;109.000
54.15500;83.000
54.20000;94.000
54.24500;105.000
54.29000;87.000
54.33500;103.000
54.38000;92.000
54.42500;91.000
54.47000;98.000
54.51500;107.000
54.56000;103.000
54.60500;86.000
54.65000;97.000
54.69500;97.000
54.74000;108.000
54.78500;95.000
54.83000;105.000
54.87500;98.000
54.92000;92.000
54.96500;108.000
55.01000;95.000
55.05500;84.000
55.10000;91.000
55.14500;96.000
55.19000;85.000
55.23500;94.000
55.28000;84.000
55.32500;96.000
55.37000;102.000
55.41500;95.000
55.46000;107.000
55.50500;101.000
55.55000;101.000
55.59500;105.000
55.64000;89.000
55.68500;94.000
55.73000;107.000
55.77500;91.000
55.82000;97.000
55.86500;86.000
55.91000;89.000
55.95500;119.000
56.00000;101.000
56.04500;93.000
56.09000;117.000
56.13500;76.000
56.18000;100.000
56.22500;106.000
56.27000;90.000
56.31500;93.000
56.36000;103.000
56.40500;93.000
56.45000;99.000
56.49500;101.000
56.54000;89.000
56.58500;92.000
56.63000;93.000
56.67500;106.000
56.72000;93.000
56.76500;93.000
56.81000;100.000
56.85500;84.000
56.90000;101.000
56.94500;97.000
56.99000;95.000
57.03500;96.000
57.08000;103.000
57.12500;93.000
57.17000;102.000
57.21500;86.000
57.26000;84.000
57.30500;85.000
57.35000;96.000
57.39500;84.000
57.44000;89.000
57.48500;97.000
57.53000;93.000
57.57500;87.000
57.62000;86.000
57.66500;83.000
57.71000;82.000
57.75500;95.000
57.80000;94.000
57.84500;88.000
57.89000;83.000
57.93500;98.000
57.98000;90.000
58.02500;90.000
58.07000;79.000
58.11500;91.000
58.16000;100.000
58.20500;87.000
58.25000;81.000
58.29500;87.000
58.34000;90.000
58.38500;77.000
58.43000;91.000
58.47500;86.000
58.52000;94.000
58.56500;73.000
58.61000;83.000
58.65500;89.000
58.70000;71.000
58.74500;83.000
58.79000;93.000
58.83500;77.000
58.88000;84.000
58.92500;83.000
58.97000;88.000
59.01500;90.000
59.06000;79.000
59.10500;91.000
59.15000;77.000
59.19500;88.000
59.24000;77.000
59.28500;84.000
59.33000;70.000
59.37500;92.000
59.42000;63.000
59.46500;78.000
59.51000;95.000
59.55500;89.000
59.60000;75.000
59.64500;69.000
59.69000;84.000
59.73500;91.000
59.78000;78.000
59.82500;79.000
59.87000;86.000
59.91500;89.000
59.96000;81.000
60.00500;69.000
60.05000;73.000
60.09500;79.000
60.14000;87.000
60.18500;84.000
60.23000;86.000
60.27500;89.000
60.32000;84.000
60.36500;75.000
60.41000;78.000
60.45500;75.000
60.50000;78.000
60.54500;75.000
60.59000;89.000
60.63500;62.000
60.68000;75.000
60.72500;84.000
60.77000;82.000
60.81500;75.000
60.86000;75.000
60.90500;90.000
60.95000;74.000
60.99500;87.000
61.04000;84.000
61.08500;76.000
61.13000;85.000
61.17500;82.000
61.22000;72.000
61.26500;80.000
61.31000;77.000
61.35500;83.000
61.40000;73.000
61.44500;80.000
61.49000;74.000
61.53500;88.000
61.58000;74.000
61.62500;84.000
61.67000;81.000
61.71500;71.000
61.76000;76.000
61.80500;91.000
61.85000;83.000
61.89500;69.000
61.94000;76.000
61.98500;81.000