File: ISoD/xrd_data/HSC005IIIcombined_range_1.xy
2.00000 738.000
2.04500 751.000
2.09000 725.000
2.13500 696.000
2.18000 639.000
2.22500 622.000
2.27000 542.000
2.31500 541.000
2.36000 525.000
2.40500 534.000
2.45000 501.000
2.49500 484.000
2.54000 455.000
2.58500 457.000
2.63000 459.000
2.67500 425.000
2.72000 437.000
2.76500 411.000
2.81000 418.000
2.85500 412.000
2.90000 441.000
2.94500 398.000
2.99000 409.000
3.03500 402.000
3.08000 375.000
3.12500 372.000
3.17000 374.000
3.21500 376.000
3.26000 383.000
3.30500 385.000
3.35000 374.000
3.39500 347.000
3.44000 365.000
3.48500 366.000
3.53000 338.000
3.57500 382.000
3.62000 345.000
3.66500 358.000
3.71000 378.000
3.75500 349.000
3.80000 350.000
3.84500 370.000
3.89000 351.000
3.93500 346.000
3.98000 363.000
4.02500 370.000
4.07000 313.000
4.11500 354.000
4.16000 337.000
4.20500 344.000
4.25000 347.000
4.29500 357.000
4.34000 366.000
4.38500 366.000
4.43000 383.000
4.47500 371.000
4.52000 338.000
4.56500 368.000
4.61000 368.000
4.65500 357.000
4.70000 368.000
4.74500 375.000
4.79000 368.000
4.83500 349.000
4.88000 374.000
4.92500 323.000
4.97000 370.000
5.01500 344.000
5.06000 336.000
5.10500 341.000
5.15000 380.000
5.19500 341.000
5.24000 359.000
5.28500 373.000
5.33000 324.000
5.37500 385.000
5.42000 352.000
5.46500 369.000
5.51000 369.000
5.55500 349.000
5.60000 359.000
5.64500 359.000
5.69000 359.000
5.73500 358.000
5.78000 368.000
5.82500 351.000
5.87000 367.000
5.91500 365.000
5.96000 387.000
6.00500 376.000
6.05000 366.000
6.09500 333.000
6.14000 346.000
6.18500 348.000
6.23000 347.000
6.27500 343.000
6.32000 351.000
6.36500 360.000
6.41000 352.000
6.45500 360.000
6.50000 368.000
6.54500 335.000
6.59000 361.000
6.63500 339.000
6.68000 333.000
6.72500 378.000
6.77000 338.000
6.81500 329.000
6.86000 338.000
6.90500 355.000
6.95000 348.000
6.99500 353.000
7.04000 338.000
7.08500 370.000
7.13000 316.000
7.17500 333.000
7.22000 333.000
7.26500 350.000
7.31000 348.000
7.35500 335.000
7.40000 343.000
7.44500 313.000
7.49000 353.000
7.53500 328.000
7.58000 353.000
7.62500 341.000
7.67000 371.000
7.71500 335.000
7.76000 362.000
7.80500 343.000
7.85000 359.000
7.89500 357.000
7.94000 334.000
7.98500 358.000
8.03000 334.000
8.07500 342.000
8.12000 333.000
8.16500 357.000
8.21000 383.000
8.25500 336.000
8.30000 327.000
8.34500 363.000
8.39000 336.000
8.43500 355.000
8.48000 339.000
8.52500 301.000
8.57000 337.000
8.61500 322.000
8.66000 342.000
8.70500 345.000
8.75000 343.000
8.79500 337.000
8.84000 333.000
8.88500 352.000
8.93000 326.000
8.97500 341.000
9.02000 317.000
9.06500 343.000
9.11000 332.000
9.15500 349.000
9.20000 355.000
9.24500 372.000
9.29000 343.000
9.33500 346.000
9.38000 343.000
9.42500 339.000
9.47000 338.000
9.51500 319.000
9.56000 318.000
9.60500 357.000
9.65000 341.000
9.69500 355.000
9.74000 342.000
9.78500 334.000
9.83000 348.000
9.87500 343.000
9.92000 350.000
9.96500 340.000
10.01000 342.000
10.05500 339.000
10.10000 336.000
10.14500 317.000
10.19000 364.000
10.23500 345.000
10.28000 314.000
10.32500 386.000
10.37000 352.000
10.41500 323.000
10.46000 345.000
10.50500 329.000
10.55000 327.000
10.59500 324.000
10.64000 347.000
10.68500 343.000
10.73000 329.000
10.77500 353.000
10.82000 335.000
10.86500 370.000
10.91000 343.000
10.95500 341.000
11.00000 348.000
11.04500 350.000
11.09000 370.000
11.13500 375.000
11.18000 359.000
11.22500 375.000
11.27000 340.000
11.31500 342.000
11.36000 327.000
11.40500 368.000
11.45000 333.000
11.49500 348.000
11.54000 348.000
11.58500 370.000
11.63000 347.000
11.67500 384.000
11.72000 377.000
11.76500 457.000
11.81000 464.000
11.85500 663.000
11.90000 951.000
11.94500 1663.000
11.99000 2834.000
12.03500 2293.000
12.08000 1915.000
12.12500 1375.000
12.17000 687.000
12.21500 512.000
12.26000 459.000
12.30500 468.000
12.35000 452.000
12.39500 418.000
12.44000 468.000
12.48500 414.000
12.53000 420.000
12.57500 417.000
12.62000 396.000
12.66500 400.000
12.71000 394.000
12.75500 414.000
12.80000 417.000
12.84500 376.000
12.89000 392.000
12.93500 391.000
12.98000 371.000
13.02500 371.000
13.07000 390.000
13.11500 398.000
13.16000 370.000
13.20500 364.000
13.25000 354.000
13.29500 374.000
13.34000 367.000
13.38500 379.000
13.43000 374.000
13.47500 393.000
13.52000 363.000
13.56500 350.000
13.61000 350.000
13.65500 365.000
13.70000 378.000
13.74500 360.000
13.79000 371.000
13.83500 371.000
13.88000 365.000
13.92500 359.000
13.97000 360.000
14.01500 348.000
14.06000 337.000
14.10500 346.000
14.15000 397.000
14.19500 349.000
14.24000 378.000
14.28500 357.000
14.33000 388.000
14.37500 343.000
14.42000 369.000
14.46500 346.000
14.51000 378.000
14.55500 348.000
14.60000 398.000
14.64500 354.000
14.69000 377.000
14.73500 353.000
14.78000 388.000
14.82500 372.000
14.87000 344.000
14.91500 379.000
14.96000 342.000
15.00500 351.000
15.05000 353.000
15.09500 364.000
15.14000 359.000
15.18500 379.000
15.23000 414.000
15.27500 366.000
15.32000 371.000
15.36500 373.000
15.41000 368.000
15.45500 394.000
15.50000 372.000
15.54500 380.000
15.59000 367.000
15.63500 366.000
15.68000 348.000
15.72500 411.000
15.77000 361.000
15.81500 378.000
15.86000 386.000
15.90500 401.000
15.95000 384.000
15.99500 380.000
16.04000 377.000
16.08500 404.000
16.13000 366.000
16.17500 395.000
16.22000 412.000
16.26500 370.000
16.31000 384.000
16.35500 402.000
16.40000 419.000
16.44500 382.000
16.49000 397.000
16.53500 386.000
16.58000 383.000
16.62500 405.000
16.67000 378.000
16.71500 399.000
16.76000 409.000
16.80500 397.000
16.85000 383.000
16.89500 410.000
16.94000 434.000
16.98500 381.000
17.03000 423.000
17.07500 404.000
17.12000 416.000
17.16500 431.000
17.21000 398.000
17.25500 429.000
17.30000 425.000
17.34500 445.000
17.39000 413.000
17.43500 472.000
17.48000 428.000
17.52500 417.000
17.57000 436.000
17.61500 438.000
17.66000 477.000
17.70500 483.000
17.75000 495.000
17.79500 554.000
17.84000 567.000
17.88500 623.000
17.93000 641.000
17.97500 646.000
18.02000 657.000
18.06500 664.000
18.11000 621.000
18.15500 553.000
18.20000 540.000
18.24500 499.000
18.29000 532.000
18.33500 520.000
18.38000 501.000
18.42500 465.000
18.47000 470.000
18.51500 474.000
18.56000 452.000
18.60500 444.000
18.65000 451.000
18.69500 433.000
18.74000 441.000
18.78500 454.000
18.83000 437.000
18.87500 478.000
18.92000 460.000
18.96500 453.000
19.01000 463.000
19.05500 416.000
19.10000 436.000
19.14500 438.000
19.19000 434.000
19.23500 437.000
19.28000 465.000
19.32500 406.000
19.37000 427.000
19.41500 422.000
19.46000 448.000
19.50500 487.000
19.55000 465.000
19.59500 454.000
19.64000 444.000
19.68500 436.000
19.73000 457.000
19.77500 448.000
19.82000 454.000
19.86500 458.000
19.91000 490.000
19.95500 480.000
20.00000 459.000
20.04500 478.000
20.09000 489.000
20.13500 474.000
20.18000 446.000
20.22500 464.000
20.27000 469.000
20.31500 478.000
20.36000 478.000
20.40500 504.000
20.45000 501.000
20.49500 492.000
20.54000 518.000
20.58500 545.000
20.63000 519.000
20.67500 597.000
20.72000 727.000
20.76500 962.000
20.81000 1038.000
20.85500 1005.000
20.90000 951.000
20.94500 850.000
20.99000 742.000
21.03500 642.000
21.08000 581.000
21.12500 576.000
21.17000 580.000
21.21500 536.000
21.26000 508.000
21.30500 529.000
21.35000 496.000
21.39500 493.000
21.44000 522.000
21.48500 518.000
21.53000 531.000
21.57500 526.000
21.62000 509.000
21.66500 518.000
21.71000 537.000
21.75500 527.000
21.80000 521.000
21.84500 552.000
21.89000 538.000
21.93500 529.000
21.98000 550.000
22.02500 520.000
22.07000 505.000
22.11500 517.000
22.16000 510.000
22.20500 523.000
22.25000 529.000
22.29500 545.000
22.34000 559.000
22.38500 534.000
22.43000 492.000
22.47500 580.000
22.52000 529.000
22.56500 568.000
22.61000 519.000
22.65500 550.000
22.70000 548.000
22.74500 564.000
22.79000 545.000
22.83500 537.000
22.88000 542.000
22.92500 532.000
22.97000 534.000
23.01500 573.000
23.06000 553.000
23.10500 557.000
23.15000 544.000
23.19500 523.000
23.24000 562.000
23.28500 590.000
23.33000 531.000
23.37500 568.000
23.42000 553.000
23.46500 592.000
23.51000 549.000
23.55500 576.000
23.60000 570.000
23.64500 534.000
23.69000 580.000
23.73500 564.000
23.78000 538.000
23.82500 577.000
23.87000 614.000
23.91500 598.000
23.96000 564.000
24.00500 585.000
24.05000 589.000
24.09500 632.000
24.14000 743.000
24.18500 737.000
24.23000 727.000
24.27500 807.000
24.32000 774.000
24.36500 707.000
24.41000 668.000
24.45500 665.000
24.50000 621.000
24.54500 686.000
24.59000 662.000
24.63500 741.000
24.68000 790.000
24.72500 810.000
24.77000 859.000
24.81500 926.000
24.86000 907.000
24.90500 961.000
24.95000 1014.000
24.99500 928.000
25.04000 912.000
25.08500 841.000
25.13000 818.000
25.17500 735.000
25.22000 691.000
25.26500 717.000
25.31000 657.000
25.35500 660.000
25.40000 630.000
25.44500 633.000
25.49000 660.000
25.53500 631.000
25.58000 609.000
25.62500 614.000
25.67000 607.000
25.71500 605.000
25.76000 608.000
25.80500 639.000
25.85000 595.000
25.89500 639.000
25.94000 628.000
25.98500 658.000
26.03000 693.000
26.07500 649.000
26.12000 635.000
26.16500 668.000
26.21000 677.000
26.25500 655.000
26.30000 675.000
26.34500 654.000
26.39000 736.000
26.43500 695.000
26.48000 711.000
26.52500 757.000
26.57000 794.000
26.61500 840.000
26.66000 842.000
26.70500 924.000
26.75000 956.000
26.79500 1043.000
26.84000 1117.000
26.88500 1371.000
26.93000 1498.000
26.97500 1708.000
27.02000 1805.000
27.06500 1804.000
27.11000 1742.000
27.15500 1481.000
27.20000 1408.000
27.24500 1361.000
27.29000 1279.000
27.33500 1307.000
27.38000 1285.000
27.42500 1325.000
27.47000 1427.000
27.51500 1501.000
27.56000 1649.000
27.60500 1737.000
27.65000 1957.000
27.69500 2013.000
27.74000 1965.000
27.78500 1869.000
27.83000 1594.000
27.87500 1499.000
27.92000 1319.000
27.96500 1152.000
28.01000 1111.000
28.05500 1035.000
28.10000 965.000
28.14500 879.000
28.19000 794.000
28.23500 772.000
28.28000 778.000
28.32500 737.000
28.37000 710.000
28.41500 694.000
28.46000 673.000
28.50500 650.000
28.55000 657.000
28.59500 645.000
28.64000 616.000
28.68500 628.000
28.73000 625.000
28.77500 631.000
28.82000 574.000
28.86500 588.000
28.91000 636.000
28.95500 622.000
29.00000 614.000
29.04500 605.000
29.09000 611.000
29.13500 625.000
29.18000 618.000
29.22500 648.000
29.27000 639.000
29.31500 678.000
29.36000 675.000
29.40500 666.000
29.45000 764.000
29.49500 782.000
29.54000 769.000
29.58500 794.000
29.63000 799.000
29.67500 839.000
29.72000 786.000
29.76500 794.000
29.81000 719.000
29.85500 699.000
29.90000 671.000
29.94500 606.000
29.99000 576.000
30.03500 580.000
30.08000 537.000
30.12500 548.000
30.17000 472.000
30.21500 494.000
30.26000 452.000
30.30500 478.000
30.35000 452.000
30.39500 437.000
30.44000 498.000
30.48500 469.000
30.53000 475.000
30.57500 441.000
30.62000 434.000
30.66500 427.000
30.71000 420.000
30.75500 426.000
30.80000 426.000
30.84500 431.000
30.89000 444.000
30.93500 418.000
30.98000 440.000
31.02500 405.000
31.07000 422.000
31.11500 432.000
31.16000 452.000
31.20500 412.000
31.25000 424.000
31.29500 411.000
31.34000 426.000
31.38500 400.000
31.43000 421.000
31.47500 403.000
31.52000 405.000
31.56500 420.000
31.61000 398.000
31.65500 411.000
31.70000 379.000
31.74500 424.000
31.79000 402.000
31.83500 423.000
31.88000 432.000
31.92500 497.000
31.97000 617.000
32.01500 650.000
32.06000 626.000
32.10500 656.000
32.15000 673.000
32.19500 701.000
32.24000 692.000
32.28500 618.000
32.33000 611.000
32.37500 550.000
32.42000 445.000
32.46500 421.000
32.51000 405.000
32.55500 408.000
32.60000 421.000
32.64500 397.000
32.69000 393.000
32.73500 374.000
32.78000 373.000
32.82500 378.000
32.87000 371.000
32.91500 395.000
32.96000 368.000
33.00500 385.000
33.05000 381.000
33.09500 351.000
33.14000 355.000
33.18500 367.000
33.23000 370.000
33.27500 393.000
33.32000 343.000
33.36500 337.000
33.41000 364.000
33.45500 340.000
33.50000 362.000
33.54500 359.000
33.59000 340.000
33.63500 340.000
33.68000 362.000
33.72500 336.000
33.77000 367.000
33.81500 351.000
33.86000 340.000
33.90500 313.000
33.95000 355.000
33.99500 340.000
34.04000 330.000
34.08500 317.000
34.13000 354.000
34.17500 336.000
34.22000 337.000
34.26500 345.000
34.31000 348.000
34.35500 374.000
34.40000 376.000
34.44500 367.000
34.49000 354.000
34.53500 346.000
34.58000 341.000
34.62500 383.000
34.67000 365.000
34.71500 364.000
34.76000 390.000
34.80500 371.000
34.85000 367.000
34.89500 401.000
34.94000 389.000
34.98500 430.000
35.03000 418.000
35.07500 391.000
35.12000 378.000
35.16500 400.000
35.21000 385.000
35.25500 352.000
35.30000 345.000
35.34500 332.000
35.39000 314.000
35.43500 322.000
35.48000 308.000
35.52500 287.000
35.57000 315.000
35.61500 287.000
35.66000 317.000
35.70500 297.000
35.75000 308.000
35.79500 293.000
35.84000 327.000
35.88500 317.000
35.93000 297.000
35.97500 312.000
36.02000 293.000
36.06500 288.000
36.11000 306.000
36.15500 272.000
36.20000 311.000
36.24500 275.000
36.29000 313.000
36.33500 284.000
36.38000 305.000
36.42500 287.000
36.47000 305.000
36.51500 324.000
36.56000 298.000
36.60500 287.000
36.65000 298.000
36.69500 283.000
36.74000 291.000
36.78500 308.000
36.83000 274.000
36.87500 280.000
36.92000 278.000
36.96500 285.000
37.01000 275.000
37.05500 271.000
37.10000 258.000
37.14500 287.000
37.19000 267.000
37.23500 253.000
37.28000 261.000
37.32500 273.000
37.37000 262.000
37.41500 244.000
37.46000 247.000
37.50500 275.000
37.55000 278.000
37.59500 280.000
37.64000 247.000
37.68500 247.000
37.73000 277.000
37.77500 284.000
37.82000 238.000
37.86500 271.000
37.91000 243.000
37.95500 242.000
38.00000 261.000
38.04500 246.000
38.09000 277.000
38.13500 250.000
38.18000 264.000
38.22500 279.000
38.27000 258.000
38.31500 263.000
38.36000 248.000
38.40500 258.000
38.45000 263.000
38.49500 280.000
38.54000 242.000
38.58500 273.000
38.63000 235.000
38.67500 253.000
38.72000 269.000
38.76500 245.000
38.81000 228.000
38.85500 258.000
38.90000 248.000
38.94500 277.000
38.99000 260.000
39.03500 276.000
39.08000 276.000
39.12500 254.000
39.17000 250.000
39.21500 240.000
39.26000 253.000
39.30500 278.000
39.35000 280.000
39.39500 288.000
39.44000 289.000
39.48500 283.000
39.53000 293.000
39.57500 281.000
39.62000 309.000
39.66500 306.000
39.71000 311.000
39.75500 361.000
39.80000 317.000
39.84500 320.000
39.89000 310.000
39.93500 278.000
39.98000 279.000
40.02500 295.000
40.07000 260.000
40.11500 267.000
40.16000 253.000
40.20500 238.000
40.25000 264.000
40.29500 255.000
40.34000 238.000
40.38500 241.000
40.43000 253.000
40.47500 227.000
40.52000 254.000
40.56500 237.000
40.61000 253.000
40.65500 231.000
40.70000 250.000
40.74500 258.000
40.79000 236.000
40.83500 238.000
40.88000 256.000
40.92500 243.000
40.97000 247.000
41.01500 239.000
41.06000 248.000
41.10500 247.000
41.15000 260.000
41.19500 245.000
41.24000 257.000
41.28500 261.000
41.33000 249.000
41.37500 257.000
41.42000 256.000
41.46500 255.000
41.51000 269.000
41.55500 253.000
41.60000 235.000
41.64500 272.000
41.69000 254.000
41.73500 238.000
41.78000 254.000
41.82500 260.000
41.87000 245.000
41.91500 250.000
41.96000 253.000
42.00500 259.000
42.05000 260.000
42.09500 257.000
42.14000 278.000
42.18500 279.000
42.23000 341.000
42.27500 348.000
42.32000 351.000
42.36500 304.000
42.41000 311.000
42.45500 331.000
42.50000 289.000
42.54500 334.000
42.59000 363.000
42.63500 362.000
42.68000 373.000
42.72500 321.000
42.77000 316.000
42.81500 290.000
42.86000 266.000
42.90500 284.000
42.95000 288.000
42.99500 266.000
43.04000 278.000
43.08500 290.000
43.13000 274.000
43.17500 258.000
43.22000 264.000
43.26500 265.000
43.31000 244.000
43.35500 263.000
43.40000 261.000
43.44500 240.000
43.49000 253.000
43.53500 252.000
43.58000 265.000
43.62500 266.000
43.67000 279.000
43.71500 258.000
43.76000 243.000
43.80500 271.000
43.85000 267.000
43.89500 298.000
43.94000 271.000
43.98500 279.000
44.03000 279.000
44.07500 289.000
44.12000 301.000
44.16500 314.000
44.21000 310.000
44.25500 358.000
44.30000 392.000
44.34500 450.000
44.39000 448.000
44.43500 416.000
44.48000 395.000
44.52500 397.000
44.57000 436.000
44.61500 438.000
44.66000 442.000
44.70500 460.000
44.75000 434.000
44.79500 434.000
44.84000 489.000
44.88500 463.000
44.93000 447.000
44.97500 450.000
45.02000 435.000
45.06500 382.000
45.11000 365.000
45.15500 331.000
45.20000 343.000
45.24500 307.000
45.29000 302.000
45.33500 282.000
45.38000 270.000
45.42500 256.000
45.47000 251.000
45.51500 260.000
45.56000 253.000
45.60500 248.000
45.65000 259.000
45.69500 248.000
45.74000 249.000
45.78500 232.000
45.83000 253.000
45.87500 241.000
45.92000 234.000
45.96500 246.000
46.01000 266.000
46.05500 248.000
46.10000 237.000
46.14500 248.000
46.19000 249.000
46.23500 260.000
46.28000 244.000
46.32500 265.000
46.37000 277.000
46.41500 273.000
46.46000 273.000
46.50500 265.000
46.55000 250.000
46.59500 251.000
46.64000 267.000
46.68500 277.000
46.73000 267.000
46.77500 261.000
46.82000 254.000
46.86500 246.000
46.91000 219.000
46.95500 273.000
47.00000 243.000
47.04500 230.000
47.09000 229.000
47.13500 243.000
47.18000 207.000
47.22500 228.000
47.27000 218.000
47.31500 222.000
47.36000 210.000
47.40500 232.000
47.45000 210.000
47.49500 234.000
47.54000 226.000
47.58500 231.000
47.63000 231.000
47.67500 224.000
47.72000 231.000
47.76500 205.000
47.81000 202.000
47.85500 187.000
47.90000 210.000
47.94500 208.000
47.99000 216.000
48.03500 217.000
48.08000 197.000
48.12500 231.000
48.17000 213.000
48.21500 197.000
48.26000 210.000
48.30500 199.000
48.35000 215.000
48.39500 208.000
48.44000 208.000
48.48500 191.000
48.53000 190.000
48.57500 221.000
48.62000 204.000
48.66500 224.000
48.71000 218.000
48.75500 225.000
48.80000 211.000
48.84500 203.000
48.89000 205.000
48.93500 207.000
48.98000 199.000
49.02500 202.000
49.07000 204.000
49.11500 207.000
49.16000 209.000
49.20500 210.000
49.25000 220.000
49.29500 220.000
49.34000 215.000
49.38500 235.000
49.43000 217.000
49.47500 220.000
49.52000 211.000
49.56500 184.000
49.61000 209.000
49.65500 237.000
49.70000 202.000
49.74500 213.000
49.79000 200.000
49.83500 206.000
49.88000 201.000
49.92500 208.000
49.97000 213.000
50.01500 217.000
50.06000 235.000
50.10500 218.000
50.15000 196.000
50.19500 222.000
50.24000 236.000
50.28500 187.000
50.33000 215.000
50.37500 220.000
50.42000 224.000
50.46500 221.000
50.51000 214.000
50.55500 237.000
50.60000 223.000
50.64500 207.000
50.69000 207.000
50.73500 206.000
50.78000 194.000
50.82500 236.000
50.87000 229.000
50.91500 209.000
50.96000 214.000
51.00500 227.000
51.05000 227.000
51.09500 231.000
51.14000 212.000
51.18500 197.000
51.23000 214.000
51.27500 204.000
51.32000 215.000
51.36500 226.000
51.41000 203.000
51.45500 215.000
51.50000 197.000
51.54500 217.000
51.59000 208.000
51.63500 191.000
51.68000 184.000
51.72500 197.000
51.77000 206.000
51.81500 201.000
51.86000 197.000
51.90500 210.000
51.95000 199.000
51.99500 196.000
52.04000 199.000
52.08500 192.000
52.13000 177.000
52.17500 214.000
52.22000 233.000
52.26500 193.000
52.31000 208.000
52.35500 228.000
52.40000 188.000
52.44500 201.000
52.49000 226.000
52.53500 192.000
52.58000 186.000
52.62500 219.000
52.67000 200.000
52.71500 207.000
52.76000 213.000
52.80500 205.000
52.85000 186.000
52.89500 212.000
52.94000 202.000
52.98500 211.000
53.03000 199.000
53.07500 199.000
53.12000 212.000
53.16500 200.000
53.21000 189.000
53.25500 203.000
53.30000 175.000
53.34500 192.000
53.39000 203.000
53.43500 191.000
53.48000 195.000
53.52500 184.000
53.57000 181.000
53.61500 183.000
53.66000 204.000
53.70500 185.000
53.75000 202.000
53.79500 189.000
53.84000 210.000
53.88500 199.000
53.93000 204.000
53.97500 213.000
54.02000 217.000
54.06500 218.000
54.11000 207.000
54.15500 216.000
54.20000 223.000
54.24500 217.000
54.29000 216.000
54.33500 204.000
54.38000 199.000
54.42500 206.000
54.47000 197.000
54.51500 214.000
54.56000 208.000
54.60500 213.000
54.65000 201.000
54.69500 202.000
54.74000 202.000
54.78500 208.000
54.83000 210.000
54.87500 204.000
54.92000 207.000
54.96500 177.000
55.01000 194.000
55.05500 200.000
55.10000 183.000
55.14500 215.000
55.19000 200.000
55.23500 233.000
55.28000 208.000
55.32500 182.000
55.37000 200.000
55.41500 198.000
55.46000 207.000
55.50500 199.000
55.55000 216.000
55.59500 232.000
55.64000 237.000
55.68500 217.000
55.73000 246.000
55.77500 231.000
55.82000 245.000
55.86500 226.000
55.91000 245.000
55.95500 249.000
56.00000 262.000
56.04500 281.000
56.09000 287.000
56.13500 276.000
56.18000 278.000
56.22500 270.000
56.27000 269.000
56.31500 288.000
56.36000 261.000
56.40500 257.000
56.45000 264.000
56.49500 272.000
56.54000 242.000
56.58500 255.000
56.63000 234.000
56.67500 239.000
56.72000 242.000
56.76500 223.000
56.81000 227.000
56.85500 223.000
56.90000 223.000
56.94500 231.000
56.99000 231.000
57.03500 234.000
57.08000 226.000
57.12500 222.000
57.17000 222.000
57.21500 248.000
57.26000 208.000
57.30500 236.000
57.35000 230.000
57.39500 230.000
57.44000 228.000
57.48500 231.000
57.53000 205.000
57.57500 224.000
57.62000 220.000
57.66500 207.000
57.71000 216.000
57.75500 217.000
57.80000 200.000
57.84500 197.000
57.89000 202.000
57.93500 211.000
57.98000 203.000
58.02500 202.000
58.07000 180.000
58.11500 217.000
58.16000 180.000
58.20500 207.000
58.25000 195.000
58.29500 174.000
58.34000 180.000
58.38500 191.000
58.43000 193.000
58.47500 195.000
58.52000 167.000
58.56500 195.000
58.61000 195.000
58.65500 193.000
58.70000 187.000
58.74500 174.000
58.79000 173.000
58.83500 188.000
58.88000 189.000
58.92500 200.000
58.97000 199.000
59.01500 199.000
59.06000 179.000
59.10500 196.000
59.15000 189.000
59.19500 182.000
59.24000 187.000
59.28500 193.000
59.33000 207.000
59.37500 178.000
59.42000 190.000
59.46500 182.000
59.51000 185.000
59.55500 171.000
59.60000 201.000
59.64500 177.000
59.69000 182.000
59.73500 186.000
59.78000 165.000
59.82500 191.000
59.87000 183.000
59.91500 197.000
59.96000 193.000
60.00500 187.000
60.05000 153.000
60.09500 174.000
60.14000 189.000
60.18500 198.000
60.23000 186.000
60.27500 185.000
60.32000 164.000
60.36500 197.000
60.41000 178.000
60.45500 179.000
60.50000 180.000
60.54500 185.000
60.59000 183.000
60.63500 203.000
60.68000 194.000
60.72500 185.000
60.77000 173.000
60.81500 166.000
60.86000 190.000
60.90500 181.000
60.95000 182.000
60.99500 165.000
61.04000 159.000
61.08500 214.000
61.13000 188.000
61.17500 177.000
61.22000 158.000
61.26500 203.000
61.31000 206.000
61.35500 207.000
61.40000 168.000
61.44500 181.000
61.49000 189.000
61.53500 178.000
61.58000 182.000
61.62500 169.000
61.67000 191.000
61.71500 192.000
61.76000 185.000
61.80500 174.000
61.85000 188.000
61.89500 182.000
61.94000 201.000
61.98500 175.000