File: ISoD/xrd_data/HSC067.xy
2.00000 7.000
2.04500 4.000
2.09000 4.000
2.13500 6.000
2.18000 3.000
2.22500 2.000
2.27000 2.000
2.31500 3.000
2.36000 3.000
2.40500 4.000
2.45000 7.000
2.49500 2.000
2.54000 4.000
2.58500 2.000
2.63000 4.000
2.67500 6.000
2.72000 23.000
2.76500 192.000
2.81000 578.000
2.85500 964.000
2.90000 1014.000
2.94500 930.000
2.99000 878.000
3.03500 879.000
3.08000 853.000
3.12500 842.000
3.17000 765.000
3.21500 734.000
3.26000 731.000
3.30500 687.000
3.35000 695.000
3.39500 689.000
3.44000 665.000
3.48500 616.000
3.53000 619.000
3.57500 600.000
3.62000 634.000
3.66500 609.000
3.71000 595.000
3.75500 538.000
3.80000 543.000
3.84500 546.000
3.89000 548.000
3.93500 499.000
3.98000 512.000
4.02500 527.000
4.07000 520.000
4.11500 529.000
4.16000 478.000
4.20500 496.000
4.25000 485.000
4.29500 487.000
4.34000 468.000
4.38500 491.000
4.43000 483.000
4.47500 490.000
4.52000 448.000
4.56500 453.000
4.61000 460.000
4.65500 446.000
4.70000 446.000
4.74500 453.000
4.79000 440.000
4.83500 446.000
4.88000 441.000
4.92500 426.000
4.97000 431.000
5.01500 416.000
5.06000 455.000
5.10500 443.000
5.15000 431.000
5.19500 435.000
5.24000 454.000
5.28500 399.000
5.33000 421.000
5.37500 438.000
5.42000 406.000
5.46500 470.000
5.51000 413.000
5.55500 436.000
5.60000 457.000
5.64500 415.000
5.69000 419.000
5.73500 414.000
5.78000 436.000
5.82500 414.000
5.87000 410.000
5.91500 435.000
5.96000 445.000
6.00500 397.000
6.05000 438.000
6.09500 441.000
6.14000 415.000
6.18500 412.000
6.23000 412.000
6.27500 403.000
6.32000 420.000
6.36500 407.000
6.41000 429.000
6.45500 431.000
6.50000 416.000
6.54500 397.000
6.59000 400.000
6.63500 424.000
6.68000 464.000
6.72500 414.000
6.77000 436.000
6.81500 423.000
6.86000 413.000
6.90500 427.000
6.95000 424.000
6.99500 445.000
7.04000 470.000
7.08500 421.000
7.13000 449.000
7.17500 428.000
7.22000 463.000
7.26500 418.000
7.31000 462.000
7.35500 491.000
7.40000 473.000
7.44500 481.000
7.49000 441.000
7.53500 494.000
7.58000 462.000
7.62500 491.000
7.67000 518.000
7.71500 511.000
7.76000 539.000
7.80500 552.000
7.85000 573.000
7.89500 550.000
7.94000 593.000
7.98500 625.000
8.03000 619.000
8.07500 637.000
8.12000 634.000
8.16500 685.000
8.21000 627.000
8.25500 642.000
8.30000 626.000
8.34500 618.000
8.39000 621.000
8.43500 658.000
8.48000 607.000
8.52500 582.000
8.57000 552.000
8.61500 537.000
8.66000 544.000
8.70500 534.000
8.75000 497.000
8.79500 507.000
8.84000 492.000
8.88500 476.000
8.93000 478.000
8.97500 500.000
9.02000 461.000
9.06500 447.000
9.11000 450.000
9.15500 448.000
9.20000 475.000
9.24500 424.000
9.29000 427.000
9.33500 434.000
9.38000 411.000
9.42500 446.000
9.47000 458.000
9.51500 432.000
9.56000 435.000
9.60500 404.000
9.65000 433.000
9.69500 433.000
9.74000 428.000
9.78500 433.000
9.83000 417.000
9.87500 424.000
9.92000 430.000
9.96500 449.000
10.01000 442.000
10.05500 429.000
10.10000 419.000
10.14500 461.000
10.19000 446.000
10.23500 419.000
10.28000 462.000
10.32500 439.000
10.37000 407.000
10.41500 403.000
10.46000 444.000
10.50500 443.000
10.55000 459.000
10.59500 435.000
10.64000 429.000
10.68500 425.000
10.73000 428.000
10.77500 452.000
10.82000 442.000
10.86500 443.000
10.91000 456.000
10.95500 423.000
11.00000 402.000
11.04500 486.000
11.09000 485.000
11.13500 478.000
11.18000 483.000
11.22500 476.000
11.27000 454.000
11.31500 477.000
11.36000 519.000
11.40500 461.000
11.45000 526.000
11.49500 566.000
11.54000 524.000
11.58500 557.000
11.63000 515.000
11.67500 537.000
11.72000 561.000
11.76500 585.000
11.81000 574.000
11.85500 613.000
11.90000 623.000
11.94500 597.000
11.99000 630.000
12.03500 592.000
12.08000 608.000
12.12500 562.000
12.17000 574.000
12.21500 594.000
12.26000 567.000
12.30500 586.000
12.35000 566.000
12.39500 558.000
12.44000 547.000
12.48500 582.000
12.53000 525.000
12.57500 517.000
12.62000 493.000
12.66500 507.000
12.71000 511.000
12.75500 475.000
12.80000 485.000
12.84500 475.000
12.89000 470.000
12.93500 473.000
12.98000 447.000
13.02500 484.000
13.07000 456.000
13.11500 483.000
13.16000 436.000
13.20500 502.000
13.25000 435.000
13.29500 455.000
13.34000 427.000
13.38500 416.000
13.43000 440.000
13.47500 460.000
13.52000 434.000
13.56500 416.000
13.61000 426.000
13.65500 436.000
13.70000 413.000
13.74500 428.000
13.79000 440.000
13.83500 456.000
13.88000 439.000
13.92500 433.000
13.97000 465.000
14.01500 418.000
14.06000 454.000
14.10500 452.000
14.15000 426.000
14.19500 450.000
14.24000 435.000
14.28500 424.000
14.33000 453.000
14.37500 395.000
14.42000 450.000
14.46500 437.000
14.51000 437.000
14.55500 442.000
14.60000 425.000
14.64500 429.000
14.69000 409.000
14.73500 457.000
14.78000 415.000
14.82500 438.000
14.87000 399.000
14.91500 418.000
14.96000 421.000
15.00500 410.000
15.05000 407.000
15.09500 437.000
15.14000 426.000
15.18500 403.000
15.23000 410.000
15.27500 404.000
15.32000 455.000
15.36500 394.000
15.41000 409.000
15.45500 413.000
15.50000 430.000
15.54500 417.000
15.59000 416.000
15.63500 391.000
15.68000 410.000
15.72500 409.000
15.77000 400.000
15.81500 399.000
15.86000 409.000
15.90500 385.000
15.95000 439.000
15.99500 424.000
16.04000 416.000
16.08500 418.000
16.13000 378.000
16.17500 413.000
16.22000 405.000
16.26500 437.000
16.31000 435.000
16.35500 407.000
16.40000 428.000
16.44500 399.000
16.49000 420.000
16.53500 416.000
16.58000 401.000
16.62500 411.000
16.67000 444.000
16.71500 424.000
16.76000 433.000
16.80500 405.000
16.85000 420.000
16.89500 418.000
16.94000 429.000
16.98500 413.000
17.03000 385.000
17.07500 377.000
17.12000 438.000
17.16500 402.000
17.21000 428.000
17.25500 406.000
17.30000 380.000
17.34500 397.000
17.39000 429.000
17.43500 393.000
17.48000 396.000
17.52500 428.000
17.57000 420.000
17.61500 434.000
17.66000 398.000
17.70500 384.000
17.75000 421.000
17.79500 414.000
17.84000 428.000
17.88500 411.000
17.93000 423.000
17.97500 457.000
18.02000 399.000
18.06500 396.000
18.11000 435.000
18.15500 412.000
18.20000 435.000
18.24500 402.000
18.29000 388.000
18.33500 400.000
18.38000 410.000
18.42500 398.000
18.47000 403.000
18.51500 391.000
18.56000 422.000
18.60500 442.000
18.65000 411.000
18.69500 416.000
18.74000 444.000
18.78500 437.000
18.83000 427.000
18.87500 416.000
18.92000 428.000
18.96500 428.000
19.01000 426.000
19.05500 420.000
19.10000 441.000
19.14500 426.000
19.19000 449.000
19.23500 438.000
19.28000 444.000
19.32500 442.000
19.37000 420.000
19.41500 453.000
19.46000 415.000
19.50500 472.000
19.55000 463.000
19.59500 453.000
19.64000 441.000
19.68500 431.000
19.73000 458.000
19.77500 431.000
19.82000 487.000
19.86500 438.000
19.91000 485.000
19.95500 454.000
20.00000 460.000
20.04500 448.000
20.09000 490.000
20.13500 479.000
20.18000 501.000
20.22500 456.000
20.27000 504.000
20.31500 476.000
20.36000 465.000
20.40500 481.000
20.45000 477.000
20.49500 533.000
20.54000 478.000
20.58500 505.000
20.63000 484.000
20.67500 496.000
20.72000 531.000
20.76500 508.000
20.81000 502.000
20.85500 540.000
20.90000 514.000
20.94500 508.000
20.99000 509.000
21.03500 504.000
21.08000 562.000
21.12500 516.000
21.17000 483.000
21.21500 508.000
21.26000 530.000
21.30500 540.000
21.35000 535.000
21.39500 515.000
21.44000 521.000
21.48500 520.000
21.53000 536.000
21.57500 511.000
21.62000 498.000
21.66500 517.000
21.71000 499.000
21.75500 508.000
21.80000 501.000
21.84500 518.000
21.89000 486.000
21.93500 512.000
21.98000 520.000
22.02500 516.000
22.07000 530.000
22.11500 491.000
22.16000 487.000
22.20500 518.000
22.25000 507.000
22.29500 496.000
22.34000 472.000
22.38500 499.000
22.43000 532.000
22.47500 476.000
22.52000 508.000
22.56500 502.000
22.61000 499.000
22.65500 488.000
22.70000 513.000
22.74500 503.000
22.79000 500.000
22.83500 522.000
22.88000 472.000
22.92500 515.000
22.97000 519.000
23.01500 516.000
23.06000 486.000
23.10500 524.000
23.15000 497.000
23.19500 516.000
23.24000 545.000
23.28500 494.000
23.33000 507.000
23.37500 492.000
23.42000 528.000
23.46500 502.000
23.51000 531.000
23.55500 495.000
23.60000 508.000
23.64500 523.000
23.69000 516.000
23.73500 523.000
23.78000 509.000
23.82500 519.000
23.87000 539.000
23.91500 552.000
23.96000 515.000
24.00500 504.000
24.05000 542.000
24.09500 563.000
24.14000 552.000
24.18500 536.000
24.23000 552.000
24.27500 511.000
24.32000 588.000
24.36500 550.000
24.41000 553.000
24.45500 574.000
24.50000 538.000
24.54500 533.000
24.59000 570.000
24.63500 556.000
24.68000 547.000
24.72500 575.000
24.77000 586.000
24.81500 554.000
24.86000 617.000
24.90500 585.000
24.95000 598.000
24.99500 572.000
25.04000 570.000
25.08500 589.000
25.13000 583.000
25.17500 615.000
25.22000 594.000
25.26500 633.000
25.31000 632.000
25.35500 602.000
25.40000 616.000
25.44500 596.000
25.49000 614.000
25.53500 595.000
25.58000 625.000
25.62500 631.000
25.67000 613.000
25.71500 663.000
25.76000 661.000
25.80500 670.000
25.85000 714.000
25.89500 718.000
25.94000 714.000
25.98500 723.000
26.03000 740.000
26.07500 749.000
26.12000 759.000
26.16500 791.000
26.21000 827.000
26.25500 844.000
26.30000 861.000
26.34500 869.000
26.39000 898.000
26.43500 901.000
26.48000 948.000
26.52500 1009.000
26.57000 1005.000
26.61500 1024.000
26.66000 1014.000
26.70500 1035.000
26.75000 1040.000
26.79500 1001.000
26.84000 1052.000
26.88500 1054.000
26.93000 1044.000
26.97500 1051.000
27.02000 1025.000
27.06500 1063.000
27.11000 1065.000
27.15500 1037.000
27.20000 1040.000
27.24500 1054.000
27.29000 1042.000
27.33500 1034.000
27.38000 1036.000
27.42500 975.000
27.47000 987.000
27.51500 986.000
27.56000 995.000
27.60500 950.000
27.65000 999.000
27.69500 998.000
27.74000 1030.000
27.78500 929.000
27.83000 957.000
27.87500 961.000
27.92000 956.000
27.96500 955.000
28.01000 953.000
28.05500 959.000
28.10000 945.000
28.14500 865.000
28.19000 916.000
28.23500 878.000
28.28000 903.000
28.32500 900.000
28.37000 909.000
28.41500 826.000
28.46000 867.000
28.50500 787.000
28.55000 767.000
28.59500 799.000
28.64000 758.000
28.68500 745.000
28.73000 747.000
28.77500 722.000
28.82000 746.000
28.86500 737.000
28.91000 738.000
28.95500 698.000
29.00000 735.000
29.04500 701.000
29.09000 694.000
29.13500 679.000
29.18000 711.000
29.22500 725.000
29.27000 671.000
29.31500 683.000
29.36000 692.000
29.40500 694.000
29.45000 667.000
29.49500 694.000
29.54000 620.000
29.58500 642.000
29.63000 613.000
29.67500 604.000
29.72000 626.000
29.76500 593.000
29.81000 614.000
29.85500 548.000
29.90000 611.000
29.94500 589.000
29.99000 572.000
30.03500 532.000
30.08000 566.000
30.12500 552.000
30.17000 553.000
30.21500 529.000
30.26000 507.000
30.30500 488.000
30.35000 512.000
30.39500 539.000
30.44000 516.000
30.48500 501.000
30.53000 490.000
30.57500 493.000
30.62000 487.000
30.66500 484.000
30.71000 474.000
30.75500 493.000
30.80000 455.000
30.84500 475.000
30.89000 481.000
30.93500 475.000
30.98000 494.000
31.02500 469.000
31.07000 493.000
31.11500 460.000
31.16000 454.000
31.20500 473.000
31.25000 438.000
31.29500 450.000
31.34000 458.000
31.38500 463.000
31.43000 470.000
31.47500 455.000
31.52000 459.000
31.56500 406.000
31.61000 447.000
31.65500 437.000
31.70000 444.000
31.74500 419.000
31.79000 444.000
31.83500 433.000
31.88000 428.000
31.92500 444.000
31.97000 415.000
32.01500 434.000
32.06000 470.000
32.10500 454.000
32.15000 419.000
32.19500 461.000
32.24000 452.000
32.28500 446.000
32.33000 456.000
32.37500 441.000
32.42000 424.000
32.46500 433.000
32.51000 480.000
32.55500 436.000
32.60000 427.000
32.64500 453.000
32.69000 436.000
32.73500 425.000
32.78000 404.000
32.82500 376.000
32.87000 404.000
32.91500 388.000
32.96000 390.000
33.00500 399.000
33.05000 389.000
33.09500 404.000
33.14000 355.000
33.18500 376.000
33.23000 405.000
33.27500 353.000
33.32000 350.000
33.36500 353.000
33.41000 364.000
33.45500 369.000
33.50000 364.000
33.54500 358.000
33.59000 336.000
33.63500 398.000
33.68000 356.000
33.72500 364.000
33.77000 373.000
33.81500 333.000
33.86000 387.000
33.90500 365.000
33.95000 338.000
33.99500 349.000
34.04000 345.000
34.08500 361.000
34.13000 316.000
34.17500 349.000
34.22000 356.000
34.26500 343.000
34.31000 341.000
34.35500 344.000
34.40000 334.000
34.44500 325.000
34.49000 354.000
34.53500 311.000
34.58000 318.000
34.62500 393.000
34.67000 349.000
34.71500 326.000
34.76000 321.000
34.80500 316.000
34.85000 324.000
34.89500 327.000
34.94000 371.000
34.98500 328.000
35.03000 322.000
35.07500 325.000
35.12000 330.000
35.16500 339.000
35.21000 332.000
35.25500 339.000
35.30000 326.000
35.34500 328.000
35.39000 319.000
35.43500 339.000
35.48000 340.000
35.52500 347.000
35.57000 354.000
35.61500 332.000
35.66000 346.000
35.70500 324.000
35.75000 325.000
35.79500 328.000
35.84000 362.000
35.88500 340.000
35.93000 333.000
35.97500 312.000
36.02000 325.000
36.06500 317.000
36.11000 313.000
36.15500 321.000
36.20000 339.000
36.24500 305.000
36.29000 309.000
36.33500 305.000
36.38000 316.000
36.42500 303.000
36.47000 290.000
36.51500 327.000
36.56000 329.000
36.60500 304.000
36.65000 293.000
36.69500 326.000
36.74000 312.000
36.78500 326.000
36.83000 302.000
36.87500 318.000
36.92000 305.000
36.96500 330.000
37.01000 317.000
37.05500 302.000
37.10000 305.000
37.14500 305.000
37.19000 310.000
37.23500 325.000
37.28000 275.000
37.32500 290.000
37.37000 280.000
37.41500 278.000
37.46000 270.000
37.50500 314.000
37.55000 260.000
37.59500 271.000
37.64000 276.000
37.68500 287.000
37.73000 284.000
37.77500 270.000
37.82000 292.000
37.86500 255.000
37.91000 277.000
37.95500 294.000
38.00000 290.000
38.04500 327.000
38.09000 302.000
38.13500 280.000
38.18000 268.000
38.22500 271.000
38.27000 278.000
38.31500 290.000
38.36000 248.000
38.40500 289.000
38.45000 285.000
38.49500 271.000
38.54000 280.000
38.58500 251.000
38.63000 269.000
38.67500 285.000
38.72000 285.000
38.76500 276.000
38.81000 257.000
38.85500 263.000
38.90000 253.000
38.94500 258.000
38.99000 269.000
39.03500 277.000
39.08000 263.000
39.12500 271.000
39.17000 279.000
39.21500 258.000
39.26000 245.000
39.30500 235.000
39.35000 262.000
39.39500 234.000
39.44000 256.000
39.48500 265.000
39.53000 259.000
39.57500 249.000
39.62000 270.000
39.66500 256.000
39.71000 248.000
39.75500 261.000
39.80000 270.000
39.84500 256.000
39.89000 279.000
39.93500 255.000
39.98000 255.000
40.02500 263.000
40.07000 256.000
40.11500 261.000
40.16000 251.000
40.20500 233.000
40.25000 232.000
40.29500 256.000
40.34000 285.000
40.38500 258.000
40.43000 267.000
40.47500 297.000
40.52000 259.000
40.56500 286.000
40.61000 259.000
40.65500 282.000
40.70000 252.000
40.74500 256.000
40.79000 250.000
40.83500 234.000
40.88000 255.000
40.92500 249.000
40.97000 256.000
41.01500 253.000
41.06000 241.000
41.10500 243.000
41.15000 266.000
41.19500 246.000
41.24000 249.000
41.28500 251.000
41.33000 247.000
41.37500 235.000
41.42000 273.000
41.46500 255.000
41.51000 237.000
41.55500 237.000
41.60000 253.000
41.64500 260.000
41.69000 236.000
41.73500 247.000
41.78000 273.000
41.82500 247.000
41.87000 252.000
41.91500 255.000
41.96000 265.000
42.00500 248.000
42.05000 272.000
42.09500 285.000
42.14000 246.000
42.18500 272.000
42.23000 280.000
42.27500 289.000
42.32000 264.000
42.36500 269.000
42.41000 269.000
42.45500 256.000
42.50000 257.000
42.54500 283.000
42.59000 270.000
42.63500 260.000
42.68000 280.000
42.72500 273.000
42.77000 292.000
42.81500 296.000
42.86000 288.000
42.90500 283.000
42.95000 285.000
42.99500 296.000
43.04000 296.000
43.08500 278.000
43.13000 274.000
43.17500 265.000
43.22000 274.000
43.26500 278.000
43.31000 273.000
43.35500 273.000
43.40000 287.000
43.44500 273.000
43.49000 272.000
43.53500 284.000
43.58000 237.000
43.62500 254.000
43.67000 289.000
43.71500 271.000
43.76000 292.000
43.80500 281.000
43.85000 298.000
43.89500 257.000
43.94000 279.000
43.98500 276.000
44.03000 261.000
44.07500 259.000
44.12000 265.000
44.16500 277.000
44.21000 255.000
44.25500 288.000
44.30000 279.000
44.34500 247.000
44.39000 266.000
44.43500 273.000
44.48000 282.000
44.52500 256.000
44.57000 280.000
44.61500 259.000
44.66000 256.000
44.70500 268.000
44.75000 261.000
44.79500 282.000
44.84000 256.000
44.88500 276.000
44.93000 265.000
44.97500 239.000
45.02000 251.000
45.06500 253.000
45.11000 264.000
45.15500 254.000
45.20000 272.000
45.24500 271.000
45.29000 263.000
45.33500 248.000
45.38000 241.000
45.42500 246.000
45.47000 253.000
45.51500 262.000
45.56000 243.000
45.60500 237.000
45.65000 247.000
45.69500 256.000
45.74000 228.000
45.78500 219.000
45.83000 247.000
45.87500 228.000
45.92000 244.000
45.96500 249.000
46.01000 231.000
46.05500 242.000
46.10000 231.000
46.14500 235.000
46.19000 242.000
46.23500 252.000
46.28000 231.000
46.32500 243.000
46.37000 228.000
46.41500 236.000
46.46000 220.000
46.50500 232.000
46.55000 223.000
46.59500 243.000
46.64000 228.000
46.68500 226.000
46.73000 244.000
46.77500 245.000
46.82000 211.000
46.86500 242.000
46.91000 227.000
46.95500 224.000
47.00000 212.000
47.04500 246.000
47.09000 219.000
47.13500 216.000
47.18000 204.000
47.22500 207.000
47.27000 216.000
47.31500 212.000
47.36000 210.000
47.40500 222.000
47.45000 223.000
47.49500 246.000
47.54000 193.000
47.58500 212.000
47.63000 201.000
47.67500 227.000
47.72000 211.000
47.76500 187.000
47.81000 195.000
47.85500 213.000
47.90000 199.000
47.94500 196.000
47.99000 210.000
48.03500 231.000
48.08000 207.000
48.12500 211.000
48.17000 222.000
48.21500 219.000
48.26000 188.000
48.30500 205.000
48.35000 214.000
48.39500 187.000
48.44000 200.000
48.48500 203.000
48.53000 170.000
48.57500 197.000
48.62000 204.000
48.66500 206.000
48.71000 186.000
48.75500 227.000
48.80000 199.000
48.84500 203.000
48.89000 197.000
48.93500 197.000
48.98000 203.000
49.02500 191.000
49.07000 215.000
49.11500 216.000
49.16000 202.000
49.20500 220.000
49.25000 202.000
49.29500 220.000
49.34000 194.000
49.38500 221.000
49.43000 206.000
49.47500 222.000
49.52000 177.000
49.56500 205.000
49.61000 181.000
49.65500 209.000
49.70000 198.000
49.74500 191.000
49.79000 197.000
49.83500 209.000
49.88000 189.000
49.92500 206.000
49.97000 209.000
50.01500 202.000
50.06000 201.000
50.10500 191.000
50.15000 198.000
50.19500 208.000
50.24000 190.000
50.28500 202.000
50.33000 203.000
50.37500 204.000
50.42000 187.000
50.46500 200.000
50.51000 220.000
50.55500 188.000
50.60000 210.000
50.64500 199.000
50.69000 217.000
50.73500 201.000
50.78000 204.000
50.82500 185.000
50.87000 201.000
50.91500 207.000
50.96000 202.000
51.00500 185.000
51.05000 196.000
51.09500 180.000
51.14000 219.000
51.18500 199.000
51.23000 193.000
51.27500 202.000
51.32000 213.000
51.36500 198.000
51.41000 186.000
51.45500 175.000
51.50000 215.000
51.54500 224.000
51.59000 178.000
51.63500 190.000
51.68000 212.000
51.72500 206.000
51.77000 179.000
51.81500 187.000
51.86000 198.000
51.90500 202.000
51.95000 180.000
51.99500 174.000
52.04000 176.000
52.08500 197.000
52.13000 188.000
52.17500 203.000
52.22000 201.000
52.26500 202.000
52.31000 192.000
52.35500 180.000
52.40000 193.000
52.44500 183.000
52.49000 187.000
52.53500 186.000
52.58000 205.000
52.62500 183.000
52.67000 183.000
52.71500 178.000
52.76000 179.000
52.80500 173.000
52.85000 211.000
52.89500 214.000
52.94000 187.000
52.98500 189.000
53.03000 190.000
53.07500 205.000
53.12000 194.000
53.16500 199.000
53.21000 175.000
53.25500 177.000
53.30000 191.000
53.34500 173.000
53.39000 201.000
53.43500 201.000
53.48000 186.000
53.52500 197.000
53.57000 194.000
53.61500 194.000
53.66000 205.000
53.70500 204.000
53.75000 188.000
53.79500 197.000
53.84000 192.000
53.88500 208.000
53.93000 204.000
53.97500 206.000
54.02000 184.000
54.06500 216.000
54.11000 203.000
54.15500 193.000
54.20000 181.000
54.24500 188.000
54.29000 207.000
54.33500 208.000
54.38000 227.000
54.42500 199.000
54.47000 203.000
54.51500 210.000
54.56000 199.000
54.60500 216.000
54.65000 226.000
54.69500 219.000
54.74000 197.000
54.78500 205.000
54.83000 217.000
54.87500 194.000
54.92000 199.000
54.96500 198.000
55.01000 216.000
55.05500 222.000
55.10000 182.000
55.14500 210.000
55.19000 219.000
55.23500 200.000
55.28000 197.000
55.32500 201.000
55.37000 182.000
55.41500 199.000
55.46000 193.000
55.50500 187.000
55.55000 210.000
55.59500 206.000
55.64000 191.000
55.68500 208.000
55.73000 201.000
55.77500 198.000
55.82000 181.000
55.86500 180.000
55.91000 203.000
55.95500 175.000
56.00000 209.000
56.04500 205.000
56.09000 184.000
56.13500 197.000
56.18000 202.000
56.22500 186.000
56.27000 197.000
56.31500 199.000
56.36000 209.000
56.40500 184.000
56.45000 190.000
56.49500 174.000
56.54000 172.000
56.58500 193.000
56.63000 177.000
56.67500 198.000
56.72000 193.000
56.76500 173.000
56.81000 192.000
56.85500 197.000
56.90000 196.000
56.94500 181.000
56.99000 187.000
57.03500 188.000
57.08000 209.000
57.12500 201.000
57.17000 177.000
57.21500 185.000
57.26000 181.000
57.30500 175.000
57.35000 193.000
57.39500 177.000
57.44000 192.000
57.48500 187.000
57.53000 186.000
57.57500 176.000
57.62000 199.000
57.66500 190.000
57.71000 188.000
57.75500 171.000
57.80000 188.000
57.84500 175.000
57.89000 188.000
57.93500 188.000
57.98000 179.000
58.02500 166.000
58.07000 162.000
58.11500 198.000
58.16000 178.000
58.20500 179.000
58.25000 194.000
58.29500 180.000
58.34000 181.000
58.38500 217.000
58.43000 176.000
58.47500 150.000
58.52000 170.000
58.56500 175.000
58.61000 177.000
58.65500 187.000
58.70000 176.000
58.74500 170.000
58.79000 184.000
58.83500 194.000
58.88000 157.000
58.92500 155.000
58.97000 176.000
59.01500 177.000
59.06000 171.000
59.10500 171.000
59.15000 175.000
59.19500 159.000
59.24000 190.000
59.28500 166.000
59.33000 177.000
59.37500 171.000
59.42000 177.000
59.46500 170.000
59.51000 172.000
59.55500 176.000
59.60000 186.000
59.64500 152.000
59.69000 168.000
59.73500 167.000
59.78000 175.000
59.82500 193.000
59.87000 162.000
59.91500 167.000
59.96000 170.000
60.00500 161.000
60.05000 184.000
60.09500 152.000
60.14000 179.000
60.18500 154.000
60.23000 147.000
60.27500 167.000
60.32000 181.000
60.36500 181.000
60.41000 166.000
60.45500 177.000
60.50000 172.000
60.54500 152.000
60.59000 154.000
60.63500 178.000
60.68000 174.000
60.72500 177.000
60.77000 178.000
60.81500 161.000
60.86000 159.000
60.90500 183.000
60.95000 163.000
60.99500 186.000
61.04000 180.000
61.08500 158.000
61.13000 161.000
61.17500 170.000
61.22000 170.000
61.26500 154.000
61.31000 164.000
61.35500 151.000
61.40000 166.000
61.44500 143.000
61.49000 162.000
61.53500 177.000
61.58000 149.000
61.62500 146.000
61.67000 156.000
61.71500 159.000
61.76000 159.000
61.80500 149.000
61.85000 162.000
61.89500 145.000
61.94000 168.000
61.98500 176.000