File: ISoD/xrd_data/HSC010_R01.xyd
    2.000      569
    2.045      518
    2.090      500
    2.135      488
    2.180      439
    2.225      433
    2.270      374
    2.315      395
    2.360      385
    2.405      371
    2.450      311
    2.495      339
    2.540      308
    2.585      297
    2.630      305
    2.675      269
    2.720      280
    2.765      292
    2.810      252
    2.855      246
    2.900      249
    2.945      262
    2.990      261
    3.035      234
    3.080      239
    3.125      222
    3.170      220
    3.215      229
    3.260      220
    3.305      229
    3.350      196
    3.395      201
    3.440      212
    3.485      217
    3.530      218
    3.575      201
    3.620      193
    3.665      193
    3.710      173
    3.755      181
    3.800      179
    3.845      202
    3.890      182
    3.935      182
    3.980      187
    4.025      178
    4.070      199
    4.115      185
    4.160      173
    4.205      186
    4.250      169
    4.295      215
    4.340      190
    4.385      207
    4.430      207
    4.475      178
    4.520      193
    4.565      169
    4.610      188
    4.655      182
    4.700      166
    4.745      171
    4.790      171
    4.835      177
    4.880      183
    4.925      189
    4.970      190
    5.015      189
    5.060      164
    5.105      193
    5.150      195
    5.195      165
    5.240      182
    5.285      192
    5.330      179
    5.375      167
    5.420      182
    5.465      156
    5.510      163
    5.555      163
    5.600      181
    5.645      189
    5.690      179
    5.735      190
    5.780      176
    5.825      195
    5.870      217
    5.915      217
    5.960      220
    6.005      243
    6.050      293
    6.095      392
    6.140      528
    6.185      418
    6.230      225
    6.275      198
    6.320      170
    6.365      176
    6.410      188
    6.455      176
    6.500      183
    6.545      193
    6.590      187
    6.635      178
    6.680      188
    6.725      199
    6.770      174
    6.815      176
    6.860      187
    6.905      174
    6.950      190
    6.995      165
    7.040      182
    7.085      194
    7.130      163
    7.175      194
    7.220      180
    7.265      187
    7.310      177
    7.355      191
    7.400      182
    7.445      167
    7.490      178
    7.535      166
    7.580      166
    7.625      182
    7.670      190
    7.715      193
    7.760      182
    7.805      190
    7.850      176
    7.895      180
    7.940      175
    7.985      193
    8.030      191
    8.075      185
    8.120      168
    8.165      182
    8.210      159
    8.255      167
    8.300      179
    8.345      175
    8.390      176
    8.435      175
    8.480      167
    8.525      173
    8.570      185
    8.615      178
    8.660      158
    8.705      185
    8.750      176
    8.795      169
    8.840      184
    8.885      195
    8.930      181
    8.975      185
    9.020      170
    9.065      179
    9.110      182
    9.155      196
    9.200      172
    9.245      170
    9.290      194
    9.335      176
    9.380      176
    9.425      191
    9.470      190
    9.515      189
    9.560      175
    9.605      171
    9.650      169
    9.695      191
    9.740      155
    9.785      172
    9.830      193
    9.875      165
    9.920      184
    9.965      185
   10.010      179
   10.055      189
   10.100      196
   10.145      164
   10.190      178
   10.235      195
   10.280      179
   10.325      188
   10.370      191
   10.415      176
   10.460      190
   10.505      172
   10.550      187
   10.595      189
   10.640      170
   10.685      198
   10.730      200
   10.775      192
   10.820      193
   10.865      182
   10.910      186
   10.955      193
   11.000      170
   11.045      207
   11.090      186
   11.135      203
   11.180      210
   11.225      176
   11.270      198
   11.315      206
   11.360      191
   11.405      200
   11.450      196
   11.495      190
   11.540      218
   11.585      193
   11.630      191
   11.675      202
   11.720      182
   11.765      212
   11.810      194
   11.855      210
   11.900      195
   11.945      234
   11.990      252
   12.035      285
   12.080      309
   12.125      451
   12.170      632
   12.215      891
   12.260     1120
   12.305     1274
   12.350      917
   12.395      417
   12.440      302
   12.485      302
   12.530      286
   12.575      283
   12.620      283
   12.665      262
   12.710      233
   12.755      285
   12.800      246
   12.845      249
   12.890      266
   12.935      251
   12.980      264
   13.025      244
   13.070      264
   13.115      241
   13.160      251
   13.205      268
   13.250      271
   13.295      294
   13.340      311
   13.385      344
   13.430      367
   13.475      311
   13.520      241
   13.565      270
   13.610      260
   13.655      283
   13.700      247
   13.745      236
   13.790      225
   13.835      233
   13.880      231
   13.925      217
   13.970      237
   14.015      216
   14.060      222
   14.105      227
   14.150      227
   14.195      219
   14.240      228
   14.285      246
   14.330      204
   14.375      216
   14.420      206
   14.465      209
   14.510      211
   14.555      222
   14.600      227
   14.645      234
   14.690      219
   14.735      207
   14.780      216
   14.825      207
   14.870      212
   14.915      243
   14.960      240
   15.005      229
   15.050      222
   15.095      206
   15.140      216
   15.185      223
   15.230      193
   15.275      199
   15.320      210
   15.365      197
   15.410      218
   15.455      206
   15.500      220
   15.545      197
   15.590      216
   15.635      228
   15.680      200
   15.725      224
   15.770      200
   15.815      211
   15.860      227
   15.905      217
   15.950      209
   15.995      206
   16.040      196
   16.085      218
   16.130      224
   16.175      211
   16.220      223
   16.265      246
   16.310      247
   16.355      241
   16.400      242
   16.445      244
   16.490      259
   16.535      237
   16.580      220
   16.625      204
   16.670      224
   16.715      236
   16.760      218
   16.805      220
   16.850      256
   16.895      228
   16.940      235
   16.985      223
   17.030      239
   17.075      229
   17.120      222
   17.165      237
   17.210      219
   17.255      227
   17.300      234
   17.345      225
   17.390      198
   17.435      248
   17.480      209
   17.525      226
   17.570      238
   17.615      245
   17.660      247
   17.705      236
   17.750      221
   17.795      234
   17.840      234
   17.885      212
   17.930      234
   17.975      241
   18.020      258
   18.065      260
   18.110      262
   18.155      245
   18.200      240
   18.245      229
   18.290      260
   18.335      240
   18.380      238
   18.425      258
   18.470      264
   18.515      272
   18.560      263
   18.605      245
   18.650      231
   18.695      243
   18.740      250
   18.785      263
   18.830      270
   18.875      251
   18.920      242
   18.965      241
   19.010      228
   19.055      253
   19.100      243
   19.145      240
   19.190      248
   19.235      273
   19.280      223
   19.325      271
   19.370      259
   19.415      313
   19.460      290
   19.505      310
   19.550      295
   19.595      284
   19.640      294
   19.685      251
   19.730      251
   19.775      249
   19.820      268
   19.865      258
   19.910      248
   19.955      249
   20.000      260
   20.045      238
   20.090      240
   20.135      254
   20.180      258
   20.225      264
   20.270      263
   20.315      253
   20.360      244
   20.405      268
   20.450      240
   20.495      249
   20.540      231
   20.585      236
   20.630      265
   20.675      265
   20.720      245
   20.765      246
   20.810      241
   20.855      251
   20.900      264
   20.945      243
   20.990      215
   21.035      266
   21.080      238
   21.125      261
   21.170      265
   21.215      260
   21.260      260
   21.305      259
   21.350      249
   21.395      281
   21.440      280
   21.485      245
   21.530      291
   21.575      282
   21.620      301
   21.665      295
   21.710      258
   21.755      275
   21.800      280
   21.845      266
   21.890      270
   21.935      273
   21.980      274
   22.025      292
   22.070      302
   22.115      317
   22.160      276
   22.205      301
   22.250      262
   22.295      270
   22.340      280
   22.385      296
   22.430      276
   22.475      268
   22.520      257
   22.565      263
   22.610      272
   22.655      266
   22.700      248
   22.745      262
   22.790      242
   22.835      274
   22.880      275
   22.925      259
   22.970      265
   23.015      267
   23.060      262
   23.105      268
   23.150      297
   23.195      293
   23.240      262
   23.285      283
   23.330      313
   23.375      282
   23.420      284
   23.465      262
   23.510      300
   23.555      284
   23.600      290
   23.645      309
   23.690      277
   23.735      296
   23.780      280
   23.825      270
   23.870      291
   23.915      285
   23.960      287
   24.005      267
   24.050      256
   24.095      272
   24.140      273
   24.185      265
   24.230      296
   24.275      260
   24.320      285
   24.365      294
   24.410      255
   24.455      290
   24.500      294
   24.545      306
   24.590      262
   24.635      287
   24.680      289
   24.725      334
   24.770      348
   24.815      325
   24.860      298
   24.905      275
   24.950      288
   24.995      273
   25.040      286
   25.085      299
   25.130      315
   25.175      323
   25.220      326
   25.265      326
   25.310      328
   25.355      330
   25.400      298
   25.445      326
   25.490      323
   25.535      336
   25.580      334
   25.625      351
   25.670      379
   25.715      388
   25.760      471
   25.805      459
   25.850      455
   25.895      395
   25.940      382
   25.985      355
   26.030      348
   26.075      362
   26.120      351
   26.165      402
   26.210      443
   26.255      477
   26.300      550
   26.345      571
   26.390      517
   26.435      511
   26.480      454
   26.525      448
   26.570      460
   26.615      484
   26.660      496
   26.705      516
   26.750      565
   26.795      599
   26.840      576
   26.885      521
   26.930      559
   26.975      587
   27.020      632
   27.065      655
   27.110      705
   27.155      738
   27.200      727
   27.245      684
   27.290      670
   27.335      700
   27.380      662
   27.425      683
   27.470      701
   27.515      698
   27.560      673
   27.605      731
   27.650      776
   27.695      747
   27.740      777
   27.785      839
   27.830      845
   27.875      696
   27.920      662
   27.965      565
   28.010      486
   28.055      452
   28.100      430
   28.145      418
   28.190      407
   28.235      392
   28.280      380
   28.325      316
   28.370      371
   28.415      317
   28.460      319
   28.505      312
   28.550      294
   28.595      292
   28.640      284
   28.685      294
   28.730      285
   28.775      294
   28.820      295
   28.865      294
   28.910      268
   28.955      283
   29.000      260
   29.045      293
   29.090      261
   29.135      252
   29.180      232
   29.225      270
   29.270      265
   29.315      262
   29.360      235
   29.405      259
   29.450      243
   29.495      267
   29.540      242
   29.585      262
   29.630      239
   29.675      233
   29.720      220
   29.765      228
   29.810      234
   29.855      224
   29.900      244
   29.945      226
   29.990      255
   30.035      278
   30.080      265
   30.125      271
   30.170      229
   30.215      254
   30.260      242
   30.305      265
   30.350      236
   30.395      206
   30.440      229
   30.485      217
   30.530      207
   30.575      229
   30.620      229
   30.665      235
   30.710      245
   30.755      245
   30.800      239
   30.845      261
   30.890      225
   30.935      230
   30.980      235
   31.025      227
   31.070      297
   31.115      317
   31.160      274
   31.205      224
   31.250      223
   31.295      209
   31.340      192
   31.385      221
   31.430      185
   31.475      213
   31.520      195
   31.565      202
   31.610      219
   31.655      216
   31.700      211
   31.745      223
   31.790      187
   31.835      188
   31.880      190
   31.925      194
   31.970      205
   32.015      190
   32.060      201
   32.105      192
   32.150      205
   32.195      194
   32.240      166
   32.285      179
   32.330      192
   32.375      162
   32.420      185
   32.465      169
   32.510      166
   32.555      183
   32.600      190
   32.645      172
   32.690      186
   32.735      182
   32.780      171
   32.825      173
   32.870      170
   32.915      172
   32.960      167
   33.005      183
   33.050      161
   33.095      175
   33.140      163
   33.185      164
   33.230      178
   33.275      168
   33.320      178
   33.365      156
   33.410      160
   33.455      159
   33.500      150
   33.545      166
   33.590      168
   33.635      166
   33.680      182
   33.725      177
   33.770      175
   33.815      174
   33.860      184
   33.905      190
   33.950      178
   33.995      175
   34.040      170
   34.085      157
   34.130      164
   34.175      161
   34.220      171
   34.265      152
   34.310      157
   34.355      136
   34.400      153
   34.445      154
   34.490      150
   34.535      152
   34.580      157
   34.625      149
   34.670      156
   34.715      129
   34.760      150
   34.805      133
   34.850      148
   34.895      157
   34.940      155
   34.985      152
   35.030      153
   35.075      140
   35.120      151
   35.165      169
   35.210      118
   35.255      149
   35.300      158
   35.345      143
   35.390      134
   35.435      153
   35.480      151
   35.525      149
   35.570      123
   35.615      155
   35.660      139
   35.705      118
   35.750      125
   35.795      131
   35.840      132
   35.885      131
   35.930      133
   35.975      142
   36.020      121
   36.065      129
   36.110      128
   36.155      131
   36.200      123
   36.245      131
   36.290      140
   36.335      108
   36.380      132
   36.425      130
   36.470      119
   36.515      133
   36.560      132
   36.605      124
   36.650      103
   36.695      134
   36.740      135
   36.785      116
   36.830      135
   36.875      117
   36.920      139
   36.965      132
   37.010      132
   37.055      127
   37.100      117
   37.145      133
   37.190      129
   37.235      128
   37.280      120
   37.325      135
   37.370      116
   37.415      126
   37.460      128
   37.505      138
   37.550      134
   37.595      127
   37.640      123
   37.685      134
   37.730      132
   37.775      122
   37.820      113
   37.865      102
   37.910      117
   37.955      136
   38.000      131
   38.045      120
   38.090      126
   38.135      116
   38.180      125
   38.225      124
   38.270      122
   38.315      112
   38.360      111
   38.405      131
   38.450      122
   38.495      114
   38.540      136
   38.585      134
   38.630      108
   38.675      127
   38.720      114
   38.765      132
   38.810      120
   38.855      134
   38.900      115
   38.945      133
   38.990      117
   39.035      120
   39.080      117
   39.125      115
   39.170      119
   39.215      124
   39.260      120
   39.305      109
   39.350      107
   39.395      119
   39.440      122
   39.485      122
   39.530      113
   39.575      104
   39.620      102
   39.665      127
   39.710      121
   39.755      127
   39.800      121
   39.845      122
   39.890       95
   39.935      155
   39.980      133
   40.025      124
   40.070      119
   40.115      101
   40.160      110
   40.205      115
   40.250      133
   40.295      138
   40.340      115
   40.385      122
   40.430      124
   40.475      114
   40.520      127
   40.565      111
   40.610      115
   40.655      119
   40.700      124
   40.745      137
   40.790      124
   40.835      117
   40.880      127
   40.925      120
   40.970      110
   41.015      109
   41.060      129
   41.105      112
   41.150      138
   41.195      122
   41.240      136
   41.285      132
   41.330      119
   41.375      119
   41.420       98
   41.465      105
   41.510       97
   41.555      116
   41.600      131
   41.645      110
   41.690      116
   41.735      108
   41.780      116
   41.825      106
   41.870      119
   41.915      120
   41.960      121
   42.005      126
   42.050      134
   42.095      111
   42.140      130
   42.185      106
   42.230      125
   42.275      125
   42.320      123
   42.365      116
   42.410      117
   42.455      115
   42.500      107
   42.545      123
   42.590      128
   42.635      118
   42.680      107
   42.725      130
   42.770      123
   42.815      116
   42.860      112
   42.905      134
   42.950      109
   42.995      103
   43.040      119
   43.085      112
   43.130      124
   43.175      113
   43.220      117
   43.265      100
   43.310      126
   43.355      120
   43.400      109
   43.445      110
   43.490      124
   43.535      134
   43.580       96
   43.625      116
   43.670      106
   43.715      114
   43.760      102
   43.805      111
   43.850      105
   43.895      107
   43.940      114
   43.985      125
   44.030      116
   44.075      124
   44.120      117
   44.165      112
   44.210      134
   44.255      137
   44.300      109
   44.345      115
   44.390      104
   44.435      107
   44.480      132
   44.525      106
   44.570      123
   44.615      120
   44.660      117
   44.705      124
   44.750      120
   44.795      132
   44.840      113
   44.885      117
   44.930      112
   44.975      114
   45.020      124
   45.065      112
   45.110      114
   45.155      118
   45.200      108
   45.245      123
   45.290      119
   45.335      120
   45.380      101
   45.425      112
   45.470      126
   45.515      112
   45.560      105
   45.605       86
   45.650      113
   45.695       98
   45.740      107
   45.785      113
   45.830      113
   45.875      118
   45.920      118
   45.965      142
   46.010      124
   46.055      110
   46.100      102
   46.145      121
   46.190      127
   46.235      122
   46.280      115
   46.325      118
   46.370      105
   46.415      103
   46.460      115
   46.505       92
   46.550      114
   46.595      117
   46.640      110
   46.685      103
   46.730      116
   46.775      115
   46.820      118
   46.865      115
   46.910      116
   46.955      128
   47.000       97
   47.045      124
   47.090      112
   47.135      102
   47.180      111
   47.225      107
   47.270       99
   47.315       98
   47.360      117
   47.405      108
   47.450       88
   47.495      104
   47.540      105
   47.585      116
   47.630      103
   47.675       88
   47.720       92
   47.765      111
   47.810      106
   47.855      108
   47.900       99
   47.945      102
   47.990       95
   48.035       93
   48.080      101
   48.125       95
   48.170      108
   48.215       99
   48.260       93
   48.305       94
   48.350      106
   48.395       95
   48.440      101
   48.485       85
   48.530       95
   48.575      112
   48.620       85
   48.665      101
   48.710       93
   48.755      117
   48.800       91
   48.845      106
   48.890       93
   48.935       95
   48.980       95
   49.025       99
   49.070       92
   49.115      100
   49.160      100
   49.205       84
   49.250      101
   49.295      102
   49.340       93
   49.385       95
   49.430       93
   49.475      108
   49.520      101
   49.565      100
   49.610      100
   49.655       87
   49.700      106
   49.745       88
   49.790       80
   49.835      110
   49.880       93
   49.925       93
   49.970       97
   50.015       96
   50.060       94
   50.105      101
   50.150       93
   50.195       86
   50.240      110
   50.285       98
   50.330      103
   50.375       97
   50.420       94
   50.465       99
   50.510      101
   50.555       89
   50.600      108
   50.645       94
   50.690       91
   50.735      102
   50.780      101
   50.825       95
   50.870       81
   50.915       93
   50.960      100
   51.005      108
   51.050       89
   51.095       90
   51.140       81
   51.185       92
   51.230       98
   51.275       83
   51.320       94
   51.365       95
   51.410       93
   51.455       76
   51.500      107
   51.545       88
   51.590       80
   51.635       94
   51.680      102
   51.725      100
   51.770       87
   51.815      105
   51.860      101
   51.905      110
   51.950       89
   51.995       95
   52.040      103
   52.085       96
   52.130       95
   52.175       95
   52.220       97
   52.265       94
   52.310      103
   52.355      101
   52.400       81
   52.445       89
   52.490       98
   52.535      100
   52.580       85
   52.625       80
   52.670       86
   52.715       91
   52.760       99
   52.805       81
   52.850       92
   52.895       97
   52.940       92
   52.985       96
   53.030      111
   53.075      105
   53.120       95
   53.165       97
   53.210       87
   53.255      109
   53.300       92
   53.345      107
   53.390      106
   53.435      100
   53.480      102
   53.525       96
   53.570      107
   53.615      101
   53.660       97
   53.705       94
   53.750       94
   53.795       98
   53.840      100
   53.885       93
   53.930       89
   53.975       90
   54.020       78
   54.065       82
   54.110      109
   54.155       83
   54.200       94
   54.245      105
   54.290       87
   54.335      103
   54.380       92
   54.425       91
   54.470       98
   54.515      107
   54.560      103
   54.605       86
   54.650       97
   54.695       97
   54.740      108
   54.785       95
   54.830      105
   54.875       98
   54.920       92
   54.965      108
   55.010       95
   55.055       84
   55.100       91
   55.145       96
   55.190       85
   55.235       94
   55.280       84
   55.325       96
   55.370      102
   55.415       95
   55.460      107
   55.505      101
   55.550      101
   55.595      105
   55.640       89
   55.685       94
   55.730      107
   55.775       91
   55.820       97
   55.865       86
   55.910       89
   55.955      119
   56.000      101
   56.045       93
   56.090      117
   56.135       76
   56.180      100
   56.225      106
   56.270       90
   56.315       93
   56.360      103
   56.405       93
   56.450       99
   56.495      101
   56.540       89
   56.585       92
   56.630       93
   56.675      106
   56.720       93
   56.765       93
   56.810      100
   56.855       84
   56.900      101
   56.945       97
   56.990       95
   57.035       96
   57.080      103
   57.125       93
   57.170      102
   57.215       86
   57.260       84
   57.305       85
   57.350       96
   57.395       84
   57.440       89
   57.485       97
   57.530       93
   57.575       87
   57.620       86
   57.665       83
   57.710       82
   57.755       95
   57.800       94
   57.845       88
   57.890       83
   57.935       98
   57.980       90
   58.025       90
   58.070       79
   58.115       91
   58.160      100
   58.205       87
   58.250       81
   58.295       87
   58.340       90
   58.385       77
   58.430       91
   58.475       86
   58.520       94
   58.565       73
   58.610       83
   58.655       89
   58.700       71
   58.745       83
   58.790       93
   58.835       77
   58.880       84
   58.925       83
   58.970       88
   59.015       90
   59.060       79
   59.105       91
   59.150       77
   59.195       88
   59.240       77
   59.285       84
   59.330       70
   59.375       92
   59.420       63
   59.465       78
   59.510       95
   59.555       89
   59.600       75
   59.645       69
   59.690       84
   59.735       91
   59.780       78
   59.825       79
   59.870       86
   59.915       89
   59.960       81
   60.005       69
   60.050       73
   60.095       79
   60.140       87
   60.185       84
   60.230       86
   60.275       89
   60.320       84
   60.365       75
   60.410       78
   60.455       75
   60.500       78
   60.545       75
   60.590       89
   60.635       62
   60.680       75
   60.725       84
   60.770       82
   60.815       75
   60.860       75
   60.905       90
   60.950       74
   60.995       87
   61.040       84
   61.085       76
   61.130       85
   61.175       82
   61.220       72
   61.265       80
   61.310       77
   61.355       83
   61.400       73
   61.445       80
   61.490       74
   61.535       88
   61.580       74
   61.625       84
   61.670       81
   61.715       71
   61.760       76
   61.805       91
   61.850       83
   61.895       69
   61.940       76
   61.985       81