File: ISoD/xrd_data/HSC076.xy
2.00000 4.000
2.04500 6.000
2.09000 3.000
2.13500 7.000
2.18000 3.000
2.22500 8.000
2.27000 4.000
2.31500 2.000
2.36000 4.000
2.40500 7.000
2.45000 2.000
2.49500 5.000
2.54000 6.000
2.58500 3.000
2.63000 6.000
2.67500 3.000
2.72000 7.000
2.76500 4.000
2.81000 6.000
2.85500 4.000
2.90000 4.000
2.94500 5.000
2.99000 5.000
3.03500 5.000
3.08000 6.000
3.12500 4.000
3.17000 15.000
3.21500 32.000
3.26000 95.000
3.30500 188.000
3.35000 292.000
3.39500 316.000
3.44000 318.000
3.48500 304.000
3.53000 292.000
3.57500 276.000
3.62000 288.000
3.66500 295.000
3.71000 292.000
3.75500 279.000
3.80000 295.000
3.84500 275.000
3.89000 281.000
3.93500 288.000
3.98000 291.000
4.02500 274.000
4.07000 277.000
4.11500 301.000
4.16000 269.000
4.20500 300.000
4.25000 275.000
4.29500 265.000
4.34000 296.000
4.38500 272.000
4.43000 313.000
4.47500 308.000
4.52000 246.000
4.56500 272.000
4.61000 298.000
4.65500 284.000
4.70000 276.000
4.74500 303.000
4.79000 303.000
4.83500 304.000
4.88000 295.000
4.92500 294.000
4.97000 295.000
5.01500 295.000
5.06000 330.000
5.10500 292.000
5.15000 321.000
5.19500 318.000
5.24000 304.000
5.28500 325.000
5.33000 302.000
5.37500 323.000
5.42000 336.000
5.46500 324.000
5.51000 308.000
5.55500 333.000
5.60000 328.000
5.64500 351.000
5.69000 365.000
5.73500 378.000
5.78000 368.000
5.82500 388.000
5.87000 394.000
5.91500 437.000
5.96000 497.000
6.00500 548.000
6.05000 637.000
6.09500 702.000
6.14000 860.000
6.18500 988.000
6.23000 1356.000
6.27500 637.000
6.32000 480.000
6.36500 448.000
6.41000 419.000
6.45500 402.000
6.50000 370.000
6.54500 413.000
6.59000 375.000
6.63500 353.000
6.68000 369.000
6.72500 352.000
6.77000 365.000
6.81500 341.000
6.86000 364.000
6.90500 338.000
6.95000 360.000
6.99500 336.000
7.04000 346.000
7.08500 358.000
7.13000 360.000
7.17500 365.000
7.22000 355.000
7.26500 347.000
7.31000 374.000
7.35500 384.000
7.40000 330.000
7.44500 354.000
7.49000 381.000
7.53500 364.000
7.58000 367.000
7.62500 377.000
7.67000 370.000
7.71500 374.000
7.76000 367.000
7.80500 332.000
7.85000 350.000
7.89500 353.000
7.94000 374.000
7.98500 367.000
8.03000 404.000
8.07500 350.000
8.12000 399.000
8.16500 367.000
8.21000 374.000
8.25500 370.000
8.30000 391.000
8.34500 413.000
8.39000 396.000
8.43500 404.000
8.48000 417.000
8.52500 439.000
8.57000 435.000
8.61500 418.000
8.66000 440.000
8.70500 416.000
8.75000 451.000
8.79500 457.000
8.84000 441.000
8.88500 464.000
8.93000 500.000
8.97500 443.000
9.02000 442.000
9.06500 400.000
9.11000 425.000
9.15500 416.000
9.20000 416.000
9.24500 404.000
9.29000 412.000
9.33500 401.000
9.38000 393.000
9.42500 435.000
9.47000 424.000
9.51500 400.000
9.56000 397.000
9.60500 421.000
9.65000 401.000
9.69500 407.000
9.74000 433.000
9.78500 434.000
9.83000 466.000
9.87500 496.000
9.92000 520.000
9.96500 507.000
10.01000 567.000
10.05500 566.000
10.10000 584.000
10.14500 637.000
10.19000 662.000
10.23500 760.000
10.28000 866.000
10.32500 1017.000
10.37000 1250.000
10.41500 1833.000
10.46000 2168.000
10.50500 950.000
10.55000 853.000
10.59500 1069.000
10.64000 993.000
10.68500 887.000
10.73000 879.000
10.77500 849.000
10.82000 941.000
10.86500 1070.000
10.91000 1238.000
10.95500 1406.000
11.00000 1530.000
11.04500 1342.000
11.09000 976.000
11.13500 812.000
11.18000 666.000
11.22500 597.000
11.27000 527.000
11.31500 520.000
11.36000 505.000
11.40500 493.000
11.45000 475.000
11.49500 460.000
11.54000 458.000
11.58500 459.000
11.63000 473.000
11.67500 444.000
11.72000 414.000
11.76500 452.000
11.81000 427.000
11.85500 435.000
11.90000 453.000
11.94500 450.000
11.99000 422.000
12.03500 418.000
12.08000 414.000
12.12500 420.000
12.17000 421.000
12.21500 501.000
12.26000 533.000
12.30500 540.000
12.35000 486.000
12.39500 480.000
12.44000 557.000
12.48500 645.000
12.53000 735.000
12.57500 881.000
12.62000 464.000
12.66500 431.000
12.71000 419.000
12.75500 428.000
12.80000 394.000
12.84500 413.000
12.89000 439.000
12.93500 412.000
12.98000 413.000
13.02500 398.000
13.07000 411.000
13.11500 425.000
13.16000 459.000
13.20500 384.000
13.25000 399.000
13.29500 432.000
13.34000 408.000
13.38500 436.000
13.43000 420.000
13.47500 425.000
13.52000 421.000
13.56500 416.000
13.61000 421.000
13.65500 421.000
13.70000 415.000
13.74500 406.000
13.79000 450.000
13.83500 452.000
13.88000 435.000
13.92500 378.000
13.97000 430.000
14.01500 401.000
14.06000 428.000
14.10500 422.000
14.15000 402.000
14.19500 417.000
14.24000 448.000
14.28500 415.000
14.33000 424.000
14.37500 416.000
14.42000 414.000
14.46500 432.000
14.51000 391.000
14.55500 433.000
14.60000 422.000
14.64500 433.000
14.69000 441.000
14.73500 447.000
14.78000 405.000
14.82500 424.000
14.87000 453.000
14.91500 462.000
14.96000 493.000
15.00500 577.000
15.05000 640.000
15.09500 475.000
15.14000 428.000
15.18500 438.000
15.23000 438.000
15.27500 427.000
15.32000 453.000
15.36500 441.000
15.41000 413.000
15.45500 464.000
15.50000 435.000
15.54500 439.000
15.59000 404.000
15.63500 453.000
15.68000 444.000
15.72500 410.000
15.77000 440.000
15.81500 462.000
15.86000 406.000
15.90500 431.000
15.95000 412.000
15.99500 423.000
16.04000 407.000
16.08500 428.000
16.13000 452.000
16.17500 428.000
16.22000 435.000
16.26500 443.000
16.31000 431.000
16.35500 448.000
16.40000 485.000
16.44500 419.000
16.49000 456.000
16.53500 444.000
16.58000 449.000
16.62500 451.000
16.67000 469.000
16.71500 416.000
16.76000 452.000
16.80500 464.000
16.85000 460.000
16.89500 449.000
16.94000 438.000
16.98500 463.000
17.03000 456.000
17.07500 441.000
17.12000 466.000
17.16500 468.000
17.21000 471.000
17.25500 504.000
17.30000 467.000
17.34500 502.000
17.39000 498.000
17.43500 539.000
17.48000 532.000
17.52500 553.000
17.57000 562.000
17.61500 528.000
17.66000 487.000
17.70500 527.000
17.75000 513.000
17.79500 500.000
17.84000 530.000
17.88500 553.000
17.93000 692.000
17.97500 580.000
18.02000 499.000
18.06500 471.000
18.11000 495.000
18.15500 488.000
18.20000 479.000
18.24500 458.000
18.29000 473.000
18.33500 525.000
18.38000 471.000
18.42500 516.000
18.47000 510.000
18.51500 510.000
18.56000 540.000
18.60500 636.000
18.65000 655.000
18.69500 786.000
18.74000 1206.000
18.78500 901.000
18.83000 651.000
18.87500 622.000
18.92000 597.000
18.96500 631.000
19.01000 622.000
19.05500 620.000
19.10000 654.000
19.14500 731.000
19.19000 895.000
19.23500 1329.000
19.28000 1480.000
19.32500 690.000
19.37000 540.000
19.41500 511.000
19.46000 513.000
19.50500 487.000
19.55000 504.000
19.59500 447.000
19.64000 467.000
19.68500 444.000
19.73000 445.000
19.77500 456.000
19.82000 461.000
19.86500 463.000
19.91000 476.000
19.95500 476.000
20.00000 486.000
20.04500 503.000
20.09000 471.000
20.13500 474.000
20.18000 469.000
20.22500 477.000
20.27000 485.000
20.31500 480.000
20.36000 452.000
20.40500 464.000
20.45000 483.000
20.49500 473.000
20.54000 473.000
20.58500 480.000
20.63000 495.000
20.67500 471.000
20.72000 508.000
20.76500 483.000
20.81000 512.000
20.85500 473.000
20.90000 542.000
20.94500 569.000
20.99000 658.000
21.03500 567.000
21.08000 548.000
21.12500 524.000
21.17000 518.000
21.21500 528.000
21.26000 504.000
21.30500 518.000
21.35000 510.000
21.39500 494.000
21.44000 528.000
21.48500 490.000
21.53000 483.000
21.57500 484.000
21.62000 480.000
21.66500 480.000
21.71000 515.000
21.75500 456.000
21.80000 477.000
21.84500 480.000
21.89000 454.000
21.93500 469.000
21.98000 447.000
22.02500 545.000
22.07000 478.000
22.11500 497.000
22.16000 486.000
22.20500 460.000
22.25000 456.000
22.29500 473.000
22.34000 468.000
22.38500 488.000
22.43000 474.000
22.47500 503.000
22.52000 474.000
22.56500 474.000
22.61000 465.000
22.65500 535.000
22.70000 462.000
22.74500 516.000
22.79000 523.000
22.83500 539.000
22.88000 507.000
22.92500 516.000
22.97000 509.000
23.01500 519.000
23.06000 494.000
23.10500 490.000
23.15000 462.000
23.19500 481.000
23.24000 475.000
23.28500 496.000
23.33000 491.000
23.37500 456.000
23.42000 514.000
23.46500 481.000
23.51000 547.000
23.55500 497.000
23.60000 477.000
23.64500 459.000
23.69000 515.000
23.73500 473.000
23.78000 535.000
23.82500 510.000
23.87000 504.000
23.91500 534.000
23.96000 512.000
24.00500 525.000
24.05000 529.000
24.09500 496.000
24.14000 523.000
24.18500 545.000
24.23000 562.000
24.27500 538.000
24.32000 646.000
24.36500 677.000
24.41000 767.000
24.45500 846.000
24.50000 1103.000
24.54500 998.000
24.59000 704.000
24.63500 621.000
24.68000 602.000
24.72500 580.000
24.77000 557.000
24.81500 584.000
24.86000 609.000
24.90500 640.000
24.95000 624.000
24.99500 692.000
25.04000 776.000
25.08500 918.000
25.13000 779.000
25.17500 731.000
25.22000 740.000
25.26500 782.000
25.31000 780.000
25.35500 796.000
25.40000 805.000
25.44500 895.000
25.49000 1004.000
25.53500 1168.000
25.58000 962.000
25.62500 971.000
25.67000 1098.000
25.71500 1010.000
25.76000 1105.000
25.80500 1188.000
25.85000 945.000
25.89500 842.000
25.94000 775.000
25.98500 795.000
26.03000 788.000
26.07500 965.000
26.12000 1068.000
26.16500 805.000
26.21000 763.000
26.25500 710.000
26.30000 740.000
26.34500 732.000
26.39000 820.000
26.43500 938.000
26.48000 1240.000
26.52500 1449.000
26.57000 1748.000
26.61500 1760.000
26.66000 1122.000
26.70500 831.000
26.75000 803.000
26.79500 762.000
26.84000 756.000
26.88500 719.000
26.93000 698.000
26.97500 691.000
27.02000 664.000
27.06500 696.000
27.11000 689.000
27.15500 727.000
27.20000 726.000
27.24500 765.000
27.29000 743.000
27.33500 829.000
27.38000 807.000
27.42500 873.000
27.47000 1013.000
27.51500 1293.000
27.56000 1724.000
27.60500 1896.000
27.65000 1558.000
27.69500 1348.000
27.74000 1369.000
27.78500 1324.000
27.83000 1206.000
27.87500 1348.000
27.92000 1455.000
27.96500 1591.000
28.01000 1877.000
28.05500 2112.000
28.10000 2334.000
28.14500 2068.000
28.19000 1760.000
28.23500 1619.000
28.28000 1744.000
28.32500 2150.000
28.37000 1864.000
28.41500 1166.000
28.46000 914.000
28.50500 812.000
28.55000 781.000
28.59500 725.000
28.64000 741.000
28.68500 619.000
28.73000 621.000
28.77500 578.000
28.82000 558.000
28.86500 594.000
28.91000 558.000
28.95500 588.000
29.00000 594.000
29.04500 561.000
29.09000 559.000
29.13500 547.000
29.18000 520.000
29.22500 574.000
29.27000 529.000
29.31500 533.000
29.36000 494.000
29.40500 561.000
29.45000 508.000
29.49500 518.000
29.54000 615.000
29.58500 635.000
29.63000 638.000
29.67500 598.000
29.72000 520.000
29.76500 536.000
29.81000 549.000
29.85500 627.000
29.90000 556.000
29.94500 491.000
29.99000 537.000
30.03500 499.000
30.08000 512.000
30.12500 549.000
30.17000 551.000
30.21500 546.000
30.26000 545.000
30.30500 628.000
30.35000 786.000
30.39500 1067.000
30.44000 1351.000
30.48500 1044.000
30.53000 784.000
30.57500 631.000
30.62000 521.000
30.66500 506.000
30.71000 462.000
30.75500 447.000
30.80000 462.000
30.84500 466.000
30.89000 484.000
30.93500 499.000
30.98000 516.000
31.02500 476.000
31.07000 460.000
31.11500 424.000
31.16000 421.000
31.20500 399.000
31.25000 399.000
31.29500 434.000
31.34000 395.000
31.38500 415.000
31.43000 441.000
31.47500 470.000
31.52000 495.000
31.56500 478.000
31.61000 557.000
31.65500 539.000
31.70000 454.000
31.74500 410.000
31.79000 395.000
31.83500 386.000
31.88000 424.000
31.92500 446.000
31.97000 446.000
32.01500 517.000
32.06000 479.000
32.10500 412.000
32.15000 395.000
32.19500 383.000
32.24000 396.000
32.28500 405.000
32.33000 371.000
32.37500 390.000
32.42000 380.000
32.46500 373.000
32.51000 420.000
32.55500 392.000
32.60000 407.000
32.64500 456.000
32.69000 464.000
32.73500 384.000
32.78000 362.000
32.82500 399.000
32.87000 360.000
32.91500 358.000
32.96000 379.000
33.00500 379.000
33.05000 408.000
33.09500 461.000
33.14000 404.000
33.18500 368.000
33.23000 392.000
33.27500 358.000
33.32000 387.000
33.36500 360.000
33.41000 393.000
33.45500 391.000
33.50000 374.000
33.54500 394.000
33.59000 381.000
33.63500 440.000
33.68000 488.000
33.72500 596.000
33.77000 517.000
33.81500 446.000
33.86000 448.000
33.90500 424.000
33.95000 483.000
33.99500 514.000
34.04000 466.000
34.08500 404.000
34.13000 402.000
34.17500 405.000
34.22000 368.000
34.26500 366.000
34.31000 366.000
34.35500 358.000
34.40000 396.000
34.44500 364.000
34.49000 371.000
34.53500 355.000
34.58000 362.000
34.62500 355.000
34.67000 297.000
34.71500 329.000
34.76000 325.000
34.80500 313.000
34.85000 318.000
34.89500 314.000
34.94000 328.000
34.98500 357.000
35.03000 330.000
35.07500 308.000
35.12000 330.000
35.16500 320.000
35.21000 313.000
35.25500 343.000
35.30000 357.000
35.34500 400.000
35.39000 367.000
35.43500 339.000
35.48000 320.000
35.52500 332.000
35.57000 330.000
35.61500 350.000
35.66000 323.000
35.70500 351.000
35.75000 403.000
35.79500 561.000
35.84000 542.000
35.88500 368.000
35.93000 338.000
35.97500 328.000
36.02000 315.000
36.06500 304.000
36.11000 304.000
36.15500 292.000
36.20000 302.000
36.24500 278.000
36.29000 294.000
36.33500 292.000
36.38000 287.000
36.42500 339.000
36.47000 309.000
36.51500 308.000
36.56000 284.000
36.60500 311.000
36.65000 290.000
36.69500 291.000
36.74000 270.000
36.78500 308.000
36.83000 285.000
36.87500 288.000
36.92000 258.000
36.96500 265.000
37.01000 286.000
37.05500 293.000
37.10000 276.000
37.14500 286.000
37.19000 298.000
37.23500 274.000
37.28000 287.000
37.32500 282.000
37.37000 263.000
37.41500 282.000
37.46000 310.000
37.50500 322.000
37.55000 312.000
37.59500 328.000
37.64000 282.000
37.68500 262.000
37.73000 262.000
37.77500 239.000
37.82000 230.000
37.86500 250.000
37.91000 255.000
37.95500 276.000
38.00000 259.000
38.04500 269.000
38.09000 269.000
38.13500 248.000
38.18000 258.000
38.22500 281.000
38.27000 262.000
38.31500 274.000
38.36000 262.000
38.40500 258.000
38.45000 261.000
38.49500 287.000
38.54000 319.000
38.58500 323.000
38.63000 309.000
38.67500 325.000
38.72000 358.000
38.76500 436.000
38.81000 482.000
38.85500 424.000
38.90000 373.000
38.94500 332.000
38.99000 342.000
39.03500 344.000
39.08000 332.000
39.12500 332.000
39.17000 299.000
39.21500 284.000
39.26000 303.000
39.30500 290.000
39.35000 307.000
39.39500 343.000
39.44000 367.000
39.48500 325.000
39.53000 310.000
39.57500 283.000
39.62000 271.000
39.66500 275.000
39.71000 251.000
39.75500 272.000
39.80000 231.000
39.84500 261.000
39.89000 247.000
39.93500 259.000
39.98000 250.000
40.02500 252.000
40.07000 263.000
40.11500 273.000
40.16000 265.000
40.20500 245.000
40.25000 282.000
40.29500 276.000
40.34000 313.000
40.38500 364.000
40.43000 523.000
40.47500 747.000
40.52000 756.000
40.56500 571.000
40.61000 378.000
40.65500 344.000
40.70000 341.000
40.74500 323.000
40.79000 349.000
40.83500 389.000
40.88000 291.000
40.92500 274.000
40.97000 261.000
41.01500 224.000
41.06000 252.000
41.10500 243.000
41.15000 268.000
41.19500 242.000
41.24000 236.000
41.28500 251.000
41.33000 238.000
41.37500 227.000
41.42000 237.000
41.46500 229.000
41.51000 234.000
41.55500 239.000
41.60000 268.000
41.64500 233.000
41.69000 234.000
41.73500 246.000
41.78000 236.000
41.82500 221.000
41.87000 247.000
41.91500 227.000
41.96000 272.000
42.00500 245.000
42.05000 243.000
42.09500 263.000
42.14000 258.000
42.18500 269.000
42.23000 315.000
42.27500 284.000
42.32000 307.000
42.36500 280.000
42.41000 291.000
42.45500 281.000
42.50000 244.000
42.54500 288.000
42.59000 238.000
42.63500 236.000
42.68000 255.000
42.72500 284.000
42.77000 262.000
42.81500 272.000
42.86000 251.000
42.90500 256.000
42.95000 268.000
42.99500 268.000
43.04000 270.000
43.08500 259.000
43.13000 280.000
43.17500 303.000
43.22000 254.000
43.26500 282.000
43.31000 275.000
43.35500 292.000
43.40000 259.000
43.44500 258.000
43.49000 254.000
43.53500 257.000
43.58000 246.000
43.62500 239.000
43.67000 212.000
43.71500 228.000
43.76000 214.000
43.80500 253.000
43.85000 218.000
43.89500 249.000
43.94000 246.000
43.98500 245.000
44.03000 221.000
44.07500 224.000
44.12000 252.000
44.16500 242.000
44.21000 279.000
44.25500 254.000
44.30000 250.000
44.34500 235.000
44.39000 232.000
44.43500 242.000
44.48000 230.000
44.52500 213.000
44.57000 256.000
44.61500 260.000
44.66000 287.000
44.70500 270.000
44.75000 250.000
44.79500 238.000
44.84000 267.000
44.88500 270.000
44.93000 252.000
44.97500 276.000
45.02000 254.000
45.06500 237.000
45.11000 242.000
45.15500 235.000
45.20000 219.000
45.24500 238.000
45.29000 239.000
45.33500 246.000
45.38000 266.000
45.42500 270.000
45.47000 302.000
45.51500 270.000
45.56000 254.000
45.60500 268.000
45.65000 239.000
45.69500 246.000
45.74000 233.000
45.78500 241.000
45.83000 215.000
45.87500 230.000
45.92000 225.000
45.96500 213.000
46.01000 204.000
46.05500 215.000
46.10000 232.000
46.14500 229.000
46.19000 254.000
46.23500 256.000
46.28000 260.000
46.32500 219.000
46.37000 235.000
46.41500 216.000
46.46000 206.000
46.50500 201.000
46.55000 216.000
46.59500 210.000
46.64000 221.000
46.68500 213.000
46.73000 208.000
46.77500 236.000
46.82000 208.000
46.86500 202.000
46.91000 210.000
46.95500 229.000
47.00000 286.000
47.04500 273.000
47.09000 239.000
47.13500 226.000
47.18000 218.000
47.22500 229.000
47.27000 217.000
47.31500 212.000
47.36000 207.000
47.40500 218.000
47.45000 214.000
47.49500 203.000
47.54000 221.000
47.58500 202.000
47.63000 239.000
47.67500 225.000
47.72000 245.000
47.76500 264.000
47.81000 219.000
47.85500 230.000
47.90000 263.000
47.94500 250.000
47.99000 237.000
48.03500 213.000
48.08000 241.000
48.12500 201.000
48.17000 219.000
48.21500 199.000
48.26000 214.000
48.30500 186.000
48.35000 218.000
48.39500 231.000
48.44000 243.000
48.48500 222.000
48.53000 220.000
48.57500 229.000
48.62000 199.000
48.66500 240.000
48.71000 223.000
48.75500 199.000
48.80000 224.000
48.84500 240.000
48.89000 205.000
48.93500 228.000
48.98000 232.000
49.02500 231.000
49.07000 227.000
49.11500 264.000
49.16000 246.000
49.20500 219.000
49.25000 242.000
49.29500 216.000
49.34000 192.000
49.38500 209.000
49.43000 230.000
49.47500 222.000
49.52000 195.000
49.56500 202.000
49.61000 203.000
49.65500 209.000
49.70000 196.000
49.74500 206.000
49.79000 241.000
49.83500 241.000
49.88000 261.000
49.92500 234.000
49.97000 240.000
50.01500 232.000
50.06000 276.000
50.10500 282.000
50.15000 347.000
50.19500 354.000
50.24000 274.000
50.28500 253.000
50.33000 234.000
50.37500 225.000
50.42000 217.000
50.46500 213.000
50.51000 247.000
50.55500 229.000
50.60000 238.000
50.64500 241.000
50.69000 242.000
50.73500 237.000
50.78000 222.000
50.82500 216.000
50.87000 200.000
50.91500 191.000
50.96000 212.000
51.00500 209.000
51.05000 172.000
51.09500 194.000
51.14000 219.000
51.18500 197.000
51.23000 234.000
51.27500 243.000
51.32000 225.000
51.36500 203.000
51.41000 202.000
51.45500 211.000
51.50000 226.000
51.54500 188.000
51.59000 205.000
51.63500 211.000
51.68000 225.000
51.72500 216.000
51.77000 198.000
51.81500 220.000
51.86000 181.000
51.90500 215.000
51.95000 233.000
51.99500 207.000
52.04000 211.000
52.08500 205.000
52.13000 229.000
52.17500 218.000
52.22000 245.000
52.26500 262.000
52.31000 234.000
52.35500 250.000
52.40000 223.000
52.44500 199.000
52.49000 213.000
52.53500 224.000
52.58000 202.000
52.62500 201.000
52.67000 224.000
52.71500 226.000
52.76000 264.000
52.80500 234.000
52.85000 252.000
52.89500 257.000
52.94000 262.000
52.98500 268.000
53.03000 278.000
53.07500 246.000
53.12000 210.000
53.16500 229.000
53.21000 227.000
53.25500 253.000
53.30000 269.000
53.34500 232.000
53.39000 257.000
53.43500 267.000
53.48000 248.000
53.52500 256.000
53.57000 235.000
53.61500 224.000
53.66000 205.000
53.70500 250.000
53.75000 243.000
53.79500 230.000
53.84000 240.000
53.88500 246.000
53.93000 272.000
53.97500 264.000
54.02000 271.000
54.06500 261.000
54.11000 271.000
54.15500 270.000
54.20000 261.000
54.24500 203.000
54.29000 228.000
54.33500 214.000
54.38000 228.000
54.42500 203.000
54.47000 233.000
54.51500 216.000
54.56000 232.000
54.60500 200.000
54.65000 227.000
54.69500 225.000
54.74000 230.000
54.78500 247.000
54.83000 236.000
54.87500 217.000
54.92000 198.000
54.96500 228.000
55.01000 232.000
55.05500 218.000
55.10000 208.000
55.14500 197.000
55.19000 207.000
55.23500 204.000
55.28000 187.000
55.32500 197.000
55.37000 204.000
55.41500 207.000
55.46000 196.000
55.50500 193.000
55.55000 199.000
55.59500 210.000
55.64000 224.000
55.68500 240.000
55.73000 260.000
55.77500 219.000
55.82000 222.000
55.86500 212.000
55.91000 214.000
55.95500 203.000
56.00000 211.000
56.04500 200.000
56.09000 227.000
56.13500 220.000
56.18000 200.000
56.22500 226.000
56.27000 211.000
56.31500 218.000
56.36000 214.000
56.40500 176.000
56.45000 187.000
56.49500 177.000
56.54000 180.000
56.58500 188.000
56.63000 190.000
56.67500 196.000
56.72000 205.000
56.76500 214.000
56.81000 197.000
56.85500 205.000
56.90000 199.000
56.94500 193.000
56.99000 200.000
57.03500 203.000
57.08000 186.000
57.12500 196.000
57.17000 192.000
57.21500 188.000
57.26000 200.000
57.30500 213.000
57.35000 194.000
57.39500 184.000
57.44000 186.000
57.48500 186.000
57.53000 197.000
57.57500 199.000
57.62000 214.000
57.66500 199.000
57.71000 193.000
57.75500 228.000
57.80000 221.000
57.84500 219.000
57.89000 199.000
57.93500 210.000
57.98000 218.000
58.02500 208.000
58.07000 231.000
58.11500 212.000
58.16000 225.000
58.20500 230.000
58.25000 202.000
58.29500 220.000
58.34000 203.000
58.38500 201.000
58.43000 227.000
58.47500 261.000
58.52000 265.000
58.56500 253.000
58.61000 282.000
58.65500 278.000
58.70000 223.000
58.74500 195.000
58.79000 180.000
58.83500 197.000
58.88000 200.000
58.92500 186.000
58.97000 202.000
59.01500 182.000
59.06000 193.000
59.10500 174.000
59.15000 186.000
59.19500 201.000
59.24000 196.000
59.28500 163.000
59.33000 177.000
59.37500 195.000
59.42000 198.000
59.46500 189.000
59.51000 185.000
59.55500 167.000
59.60000 185.000
59.64500 206.000
59.69000 170.000
59.73500 183.000
59.78000 190.000
59.82500 187.000
59.87000 158.000
59.91500 183.000
59.96000 168.000
60.00500 173.000
60.05000 184.000
60.09500 181.000
60.14000 190.000
60.18500 174.000
60.23000 185.000
60.27500 197.000
60.32000 189.000
60.36500 164.000
60.41000 166.000
60.45500 193.000
60.50000 190.000
60.54500 194.000
60.59000 159.000
60.63500 181.000
60.68000 170.000
60.72500 177.000
60.77000 161.000
60.81500 161.000
60.86000 185.000
60.90500 185.000
60.95000 160.000
60.99500 183.000
61.04000 153.000
61.08500 192.000
61.13000 166.000
61.17500 167.000
61.22000 164.000
61.26500 160.000
61.31000 171.000
61.35500 139.000
61.40000 173.000
61.44500 172.000
61.49000 177.000
61.53500 178.000
61.58000 169.000
61.62500 177.000
61.67000 184.000
61.71500 177.000
61.76000 168.000
61.80500 173.000
61.85000 164.000
61.89500 188.000
61.94000 181.000
61.98500 176.000