File: ISoD/xrd_data/HSC094_gew_ranges_combined.xy
2.0 8.0
2.045 6.0
2.09 4.0
2.135 6.0
2.18 7.0
2.225 5.0
2.27 1.0
2.315 1.0
2.36 8.0
2.405 4.0
2.45 10.0
2.495 8.0
2.54 9.0
2.585 8.0
2.63 5.0
2.675 7.0
2.72 9.0
2.765 5.0
2.81 5.0
2.855 6.0
2.9 5.0
2.945 6.0
2.99 11.0
3.035 38.0
3.08 87.0
3.125 258.0
3.17 422.0
3.215 452.0
3.26 469.0
3.305 451.0
3.35 462.0
3.395 434.0
3.44 416.0
3.485 440.0
3.53 400.0
3.575 385.0
3.62 371.0
3.665 396.0
3.71 364.0
3.755 380.0
3.8 381.0
3.845 386.0
3.89 363.0
3.935 387.0
3.98 379.0
4.025 377.0
4.07 368.0
4.115 354.0
4.16 361.0
4.205 342.0
4.25 366.0
4.295 388.0
4.34 325.0
4.385 361.0
4.43 356.0
4.475 353.0
4.52 347.0
4.565 374.0
4.61 355.0
4.655 378.0
4.7 349.0
4.745 334.0
4.79 358.0
4.835 340.0
4.88 323.0
4.925 370.0
4.97 352.0
5.015 352.0
5.06 370.0
5.105 349.0
5.15 330.0
5.195 381.0
5.24 375.0
5.285 348.0
5.33 322.0
5.375 363.0
5.42 374.0
5.465 345.0
5.51 363.0
5.555 347.0
5.6 363.0
5.645 358.0
5.69 375.0
5.735 368.0
5.78 378.0
5.825 373.0
5.87 348.0
5.915 391.0
5.96 379.0
6.005 345.0
6.05 334.0
6.095 379.0
6.14 358.0
6.185 347.0
6.23 357.0
6.275 368.0
6.32 389.0
6.365 354.0
6.41 353.0
6.455 364.0
6.5 372.0
6.545 361.0
6.59 400.0
6.635 372.0
6.68 373.0
6.725 387.0
6.77 393.0
6.815 403.0
6.86 368.0
6.905 403.0
6.95 378.0
6.995 388.0
7.04 391.0
7.085 402.0
7.13 400.0
7.175 387.0
7.22 365.0
7.265 371.0
7.31 386.0
7.355 370.0
7.4 412.0
7.445 390.0
7.49 428.0
7.535 396.0
7.58 416.0
7.625 406.0
7.67 432.0
7.715 441.0
7.76 429.0
7.805 440.0
7.85 392.0
7.895 413.0
7.94 383.0
7.985 409.0
8.03 407.0
8.075 394.0
8.12 408.0
8.165 397.0
8.21 414.0
8.255 429.0
8.3 437.0
8.345 461.0
8.39 429.0
8.435 444.0
8.48 488.0
8.525 515.0
8.57 524.0
8.615 526.0
8.66 560.0
8.705 667.0
8.75 758.0
8.795 986.0
8.84 1260.0
8.885 1899.0
8.93 2818.0
8.975 4957.0
9.02 6429.0
9.065 2016.0
9.11 878.0
9.155 672.0
9.2 540.0
9.245 492.0
9.29 459.0
9.335 488.0
9.38 457.0
9.425 460.0
9.47 444.0
9.515 429.0
9.56 447.0
9.605 431.0
9.65 438.0
9.695 429.0
9.74 454.0
9.785 408.0
9.83 438.0
9.875 441.0
9.92 472.0
9.965 427.0
10.01 409.0
10.055 429.0
10.1 458.0
10.145 470.0
10.19 498.0
10.235 569.0
10.28 619.0
10.325 741.0
10.37 975.0
10.415 1380.0
10.46 2215.0
10.505 3476.0
10.55 5652.0
10.595 3119.0
10.64 1169.0
10.685 758.0
10.73 625.0
10.775 652.0
10.82 698.0
10.865 495.0
10.91 473.0
10.955 505.0
11.0 471.0
11.045 448.0
11.09 495.0
11.135 467.0
11.18 486.0
11.225 544.0
11.27 561.0
11.315 584.0
11.36 635.0
11.405 804.0
11.45 933.0
11.495 1350.0
11.54 1980.0
11.585 3233.0
11.63 5427.0
11.675 9553.0
11.72 6477.0
11.765 2535.0
11.81 1467.0
11.855 1091.0
11.9 942.0
11.945 748.0
11.99 714.0
12.035 596.0
12.08 555.0
12.125 551.0
12.17 497.0
12.215 490.0
12.26 491.0
12.305 512.0
12.35 550.0
12.395 524.0
12.44 463.0
12.485 462.0
12.53 458.0
12.575 447.0
12.62 446.0
12.665 419.0
12.71 473.0
12.755 539.0
12.8 586.0
12.845 800.0
12.89 1150.0
12.935 1849.0
12.98 3757.0
13.025 5970.0
13.07 1701.0
13.115 887.0
13.16 684.0
13.205 676.0
13.25 832.0
13.295 1144.0
13.34 2041.0
13.385 3534.0
13.43 1852.0
13.475 589.0
13.52 466.0
13.565 453.0
13.61 419.0
13.655 418.0
13.7 433.0
13.745 426.0
13.79 408.0
13.835 418.0
13.88 455.0
13.925 522.0
13.97 606.0
14.015 564.0
14.06 461.0
14.105 411.0
14.15 408.0
14.195 434.0
14.24 449.0
14.285 441.0
14.33 405.0
14.375 436.0
14.42 405.0
14.465 425.0
14.51 438.0
14.555 434.0
14.6 449.0
14.645 447.0
14.69 473.0
14.735 539.0
14.78 652.0
14.825 870.0
14.87 1387.0
14.915 2535.0
14.96 5433.0
15.005 7777.0
15.05 1780.0
15.095 720.0
15.14 549.0
15.185 473.0
15.23 452.0
15.275 478.0
15.32 459.0
15.365 488.0
15.41 522.0
15.455 535.0
15.5 467.0
15.545 448.0
15.59 475.0
15.635 552.0
15.68 593.0
15.725 693.0
15.77 538.0
15.815 462.0
15.86 509.0
15.905 550.0
15.95 693.0
15.995 953.0
16.04 1376.0
16.085 1818.0
16.13 1170.0
16.175 781.0
16.22 616.0
16.265 561.0
16.31 528.0
16.355 486.0
16.4 508.0
16.445 536.0
16.49 650.0
16.535 853.0
16.58 1306.0
16.625 2318.0
16.67 3633.0
16.715 1942.0
16.76 915.0
16.805 661.0
16.85 539.0
16.895 445.0
16.94 493.0
16.985 449.0
17.03 475.0
17.075 458.0
17.12 418.0
17.165 438.0
17.21 445.0
17.255 444.0
17.3 438.0
17.345 424.0
17.39 415.0
17.435 427.0
17.48 416.0
17.525 439.0
17.57 433.0
17.615 469.0
17.66 462.0
17.705 461.0
17.75 496.0
17.795 484.0
17.84 550.0
17.885 674.0
17.93 820.0
17.975 1227.0
18.02 2075.0
18.065 3399.0
18.11 3590.0
18.155 1956.0
18.2 1023.0
18.245 752.0
18.29 602.0
18.335 560.0
18.38 527.0
18.425 527.0
18.47 539.0
18.515 617.0
18.56 494.0
18.605 473.0
18.65 487.0
18.695 486.0
18.74 484.0
18.785 434.0
18.83 458.0
18.875 554.0
18.92 470.0
18.965 432.0
19.01 435.0
19.055 488.0
19.1 455.0
19.145 446.0
19.19 419.0
19.235 465.0
19.28 446.0
19.325 429.0
19.37 478.0
19.415 499.0
19.46 691.0
19.505 1031.0
19.55 2091.0
19.595 4964.0
19.64 4120.0
19.685 980.0
19.73 592.0
19.775 494.0
19.82 468.0
19.865 451.0
19.91 471.0
19.955 484.0
20.0 443.0
20.045 471.0
20.09 491.0
20.135 494.0
20.18 562.0
20.225 683.0
20.27 1055.0
20.315 1814.0
20.36 818.0
20.405 535.0
20.45 533.0
20.495 518.0
20.54 501.0
20.585 594.0
20.63 624.0
20.675 780.0
20.72 739.0
20.765 557.0
20.81 598.0
20.855 591.0
20.9 607.0
20.945 640.0
20.99 786.0
21.035 1007.0
21.08 1406.0
21.125 1840.0
21.17 1670.0
21.215 1825.0
21.26 1387.0
21.305 1184.0
21.35 1228.0
21.395 1488.0
21.44 2105.0
21.485 3472.0
21.53 6076.0
21.575 10077.0
21.62 10428.0
21.665 4665.0
21.71 2315.0
21.755 1543.0
21.8 1293.0
21.845 1006.0
21.89 890.0
21.935 842.0
21.98 761.0
22.025 763.0
22.07 727.0
22.115 677.0
22.16 637.0
22.205 630.0
22.25 644.0
22.295 759.0
22.34 794.0
22.385 920.0
22.43 1317.0
22.475 1753.0
22.52 1154.0
22.565 749.0
22.61 658.0
22.655 580.0
22.7 587.0
22.745 672.0
22.79 828.0
22.835 936.0
22.88 762.0
22.925 607.0
22.97 548.0
23.015 506.0
23.06 499.0
23.105 486.0
23.15 499.0
23.195 503.0
23.24 557.0
23.285 594.0
23.33 585.0
23.375 772.0
23.42 896.0
23.465 892.0
23.51 856.0
23.555 698.0
23.6 577.0
23.645 531.0
23.69 494.0
23.735 523.0
23.78 492.0
23.825 473.0
23.87 498.0
23.915 481.0
23.96 475.0
24.005 480.0
24.05 480.0
24.095 499.0
24.14 459.0
24.185 526.0
24.23 475.0
24.275 487.0
24.32 457.0
24.365 469.0
24.41 469.0
24.455 499.0
24.5 477.0
24.545 498.0
24.59 492.0
24.635 488.0
24.68 484.0
24.725 495.0
24.77 462.0
24.815 465.0
24.86 481.0
24.905 501.0
24.95 440.0
24.995 483.0
25.04 462.0
25.085 453.0
25.13 422.0
25.175 437.0
25.22 437.0
25.265 450.0
25.31 474.0
25.355 424.0
25.4 444.0
25.445 482.0
25.49 449.0
25.535 479.0
25.58 475.0
25.625 492.0
25.67 454.0
25.715 431.0
25.76 453.0
25.805 458.0
25.85 476.0
25.895 469.0
25.94 473.0
25.985 486.0
26.03 478.0
26.075 561.0
26.12 674.0
26.165 1148.0
26.21 1704.0
26.255 1013.0
26.3 638.0
26.345 526.0
26.39 514.0
26.435 539.0
26.48 553.0
26.525 596.0
26.57 562.0
26.615 605.0
26.66 690.0
26.705 846.0
26.75 1365.0
26.795 1315.0
26.84 916.0
26.885 826.0
26.93 795.0
26.975 845.0
27.02 913.0
27.065 1066.0
27.11 1609.0
27.155 1986.0
27.2 1167.0
27.245 744.0
27.29 655.0
27.335 606.0
27.38 657.0
27.425 717.0
27.47 976.0
27.515 1587.0
27.56 3054.0
27.605 3727.0
27.65 1597.0
27.695 988.0
27.74 886.0
27.785 937.0
27.83 914.0
27.875 674.0
27.92 603.0
27.965 629.0
28.01 700.0
28.055 948.0
28.1 1081.0
28.145 669.0
28.19 515.0
28.235 540.0
28.28 509.0
28.325 531.0
28.37 544.0
28.415 583.0
28.46 736.0
28.505 1062.0
28.55 1805.0
28.595 2376.0
28.64 1429.0
28.685 984.0
28.73 1053.0
28.775 937.0
28.82 939.0
28.865 818.0
28.91 691.0
28.955 627.0
29.0 632.0
29.045 597.0
29.09 786.0
29.135 864.0
29.18 581.0
29.225 522.0
29.27 499.0
29.315 476.0
29.36 514.0
29.405 584.0
29.45 545.0
29.495 484.0
29.54 502.0
29.585 511.0
29.63 466.0
29.675 488.0
29.72 459.0
29.765 451.0
29.81 473.0
29.855 504.0
29.9 497.0
29.945 512.0
29.99 554.0
30.035 648.0
30.08 659.0
30.125 833.0
30.17 1194.0
30.215 2113.0
30.26 3709.0
30.305 3738.0
30.35 4249.0
30.395 3822.0
30.44 1894.0
30.485 1096.0
30.53 764.0
30.575 632.0
30.62 573.0
30.665 563.0
30.71 541.0
30.755 529.0
30.8 503.0
30.845 485.0
30.89 503.0
30.935 524.0
30.98 490.0
31.025 492.0
31.07 569.0
31.115 600.0
31.16 673.0
31.205 568.0
31.25 563.0
31.295 592.0
31.34 597.0
31.385 630.0
31.43 671.0
31.475 683.0
31.52 785.0
31.565 970.0
31.61 1271.0
31.655 1805.0
31.7 2994.0
31.745 3976.0
31.79 4401.0
31.835 5546.0
31.88 4897.0
31.925 2612.0
31.97 1569.0
32.015 1157.0
32.06 908.0
32.105 767.0
32.15 696.0
32.195 700.0
32.24 609.0
32.285 590.0
32.33 634.0
32.375 724.0
32.42 1065.0
32.465 1889.0
32.51 4366.0
32.555 5098.0
32.6 1877.0
32.645 1121.0
32.69 1069.0
32.735 943.0
32.78 702.0
32.825 631.0
32.87 522.0
32.915 469.0
32.96 465.0
33.005 459.0
33.05 416.0
33.095 479.0
33.14 464.0
33.185 492.0
33.23 552.0
33.275 625.0
33.32 495.0
33.365 459.0
33.41 443.0
33.455 544.0
33.5 774.0
33.545 1141.0
33.59 609.0
33.635 542.0
33.68 609.0
33.725 577.0
33.77 497.0
33.815 421.0
33.86 449.0
33.905 398.0
33.95 381.0
33.995 406.0
34.04 400.0
34.085 388.0
34.13 367.0
34.175 382.0
34.22 348.0
34.265 389.0
34.31 360.0
34.355 388.0
34.4 401.0
34.445 347.0
34.49 368.0
34.535 366.0
34.58 379.0
34.625 370.0
34.67 337.0
34.715 348.0
34.76 378.0
34.805 370.0
34.85 389.0
34.895 380.0
34.94 452.0
34.985 530.0
35.03 678.0
35.075 1026.0
35.12 933.0
35.165 590.0
35.21 529.0
35.255 480.0
35.3 530.0
35.345 582.0
35.39 687.0
35.435 870.0
35.48 1293.0
35.525 2471.0
35.57 2207.0
35.615 1095.0
35.66 730.0
35.705 576.0
35.75 510.0
35.795 447.0
35.84 443.0
35.885 464.0
35.93 486.0
35.975 468.0
36.02 503.0
36.065 580.0
36.11 865.0
36.155 1315.0
36.2 1827.0
36.245 1705.0
36.29 1907.0
36.335 1563.0
36.38 892.0
36.425 562.0
36.47 490.0
36.515 518.0
36.56 505.0
36.605 591.0
36.65 678.0
36.695 601.0
36.74 549.0
36.785 605.0
36.83 608.0
36.875 570.0
36.92 508.0
36.965 430.0
37.01 462.0
37.055 442.0
37.1 461.0
37.145 438.0
37.19 444.0
37.235 565.0
37.28 580.0
37.325 664.0
37.37 894.0
37.415 1455.0
37.46 2154.0
37.505 1809.0
37.55 1088.0
37.595 836.0
37.64 808.0
37.685 961.0
37.73 1120.0
37.775 940.0
37.82 673.0
37.865 528.0
37.91 414.0
37.955 392.0
38.0 396.0
38.045 401.0
38.09 366.0
38.135 388.0
38.18 379.0
38.225 506.0
38.27 547.0
38.315 460.0
38.36 395.0
38.405 442.0
38.45 459.0
38.495 551.0
38.54 510.0
38.585 441.0
38.63 374.0
38.675 336.0
38.72 328.0
38.765 347.0
38.81 322.0
38.855 332.0
38.9 307.0
38.945 323.0
38.99 330.0
39.035 312.0
39.08 297.0
39.125 347.0
39.17 356.0
39.215 336.0
39.26 392.0
39.305 374.0
39.35 379.0
39.395 428.0
39.44 446.0
39.485 395.0
39.53 345.0
39.575 384.0
39.62 387.0
39.665 429.0
39.71 502.0
39.755 598.0
39.8 777.0
39.845 939.0
39.89 749.0
39.935 788.0
39.98 645.0
40.025 453.0
40.07 390.0
40.115 334.0
40.16 337.0
40.205 354.0
40.25 348.0
40.295 351.0
40.34 377.0
40.385 418.0
40.43 460.0
40.475 506.0
40.52 448.0
40.565 423.0
40.61 415.0
40.655 414.0
40.7 486.0
40.745 509.0
40.79 727.0
40.835 1027.0
40.88 1133.0
40.925 1197.0
40.97 1344.0
41.015 862.0
41.06 524.0
41.105 464.0
41.15 417.0
41.195 468.0
41.24 554.0
41.285 628.0
41.33 582.0
41.375 447.0
41.42 400.0
41.465 421.0
41.51 437.0
41.555 443.0
41.6 422.0
41.645 447.0
41.69 503.0
41.735 653.0
41.78 774.0
41.825 862.0
41.87 994.0
41.915 1002.0
41.96 897.0
42.005 959.0
42.05 814.0
42.095 616.0
42.14 524.0
42.185 539.0
42.23 564.0
42.275 572.0
42.32 571.0
42.365 573.0
42.41 520.0
42.455 470.0
42.5 458.0
42.545 526.0
42.59 782.0
42.635 1174.0
42.68 1493.0
42.725 1327.0
42.77 1424.0
42.815 1972.0
42.86 1727.0
42.905 1069.0
42.95 767.0
42.995 667.0
43.04 597.0
43.085 625.0
43.13 609.0
43.175 613.0
43.22 617.0
43.265 573.0
43.31 679.0
43.355 940.0
43.4 1627.0
43.445 3192.0
43.49 3176.0
43.535 1385.0
43.58 760.0
43.625 550.0
43.67 491.0
43.715 445.0
43.76 472.0
43.805 528.0
43.85 551.0
43.895 620.0
43.94 640.0
43.985 759.0
44.03 830.0
44.075 807.0
44.12 683.0
44.165 681.0
44.21 577.0
44.255 495.0
44.3 432.0
44.345 371.0
44.39 429.0
44.435 367.0
44.48 419.0
44.525 426.0
44.57 544.0
44.615 795.0
44.66 1039.0
44.705 815.0
44.75 651.0
44.795 595.0
44.84 702.0
44.885 623.0
44.93 555.0
44.975 490.0
45.02 403.0
45.065 392.0
45.11 410.0
45.155 384.0
45.2 408.0
45.245 485.0
45.29 576.0
45.335 612.0
45.38 801.0
45.425 1174.0
45.47 1715.0
45.515 2248.0
45.56 1706.0
45.605 1090.0
45.65 926.0
45.695 690.0
45.74 548.0
45.785 535.0
45.83 521.0
45.875 556.0
45.92 608.0
45.965 580.0
46.01 497.0
46.055 501.0
46.1 490.0
46.145 541.0
46.19 512.0
46.235 501.0
46.28 456.0
46.325 427.0
46.37 442.0
46.415 463.0
46.46 588.0
46.505 584.0
46.55 524.0
46.595 576.0
46.64 773.0
46.685 958.0
46.73 1087.0
46.775 1205.0
46.82 1254.0
46.865 1389.0
46.91 1124.0
46.955 865.0
47.0 780.0
47.045 559.0
47.09 504.0
47.135 496.0
47.18 470.0
47.225 420.0
47.27 389.0
47.315 373.0
47.36 412.0
47.405 475.0
47.45 682.0
47.495 953.0
47.54 1296.0
47.585 1193.0
47.63 700.0
47.675 508.0
47.72 470.0
47.765 437.0
47.81 485.0
47.855 534.0
47.9 608.0
47.945 753.0
47.99 1022.0
48.035 1141.0
48.08 901.0
48.125 817.0
48.17 816.0
48.215 734.0
48.26 790.0
48.305 826.0
48.35 765.0
48.395 746.0
48.44 696.0
48.485 768.0
48.53 814.0
48.575 732.0
48.62 733.0
48.665 867.0
48.71 987.0
48.755 1071.0
48.8 798.0
48.845 574.0
48.89 509.0
48.935 567.0
48.98 526.0
49.025 469.0
49.07 434.0
49.115 368.0
49.16 378.0
49.205 369.0
49.25 517.0
49.295 871.0
49.34 1006.0
49.385 556.0
49.43 393.0
49.475 331.0
49.52 314.0
49.565 325.0
49.61 335.0
49.655 354.0
49.7 391.0
49.745 377.0
49.79 430.0
49.835 586.0
49.88 809.0
49.925 954.0
49.97 844.0
50.015 771.0
50.06 649.0
50.105 528.0
50.15 465.0
50.195 453.0
50.24 452.0
50.285 434.0
50.33 408.0
50.375 429.0
50.42 418.0
50.465 437.0
50.51 440.0
50.555 467.0
50.6 527.0
50.645 563.0
50.69 626.0
50.735 623.0
50.78 536.0
50.825 533.0
50.87 598.0
50.915 880.0
50.96 1271.0
51.005 953.0
51.05 597.0
51.095 475.0
51.14 399.0
51.185 365.0
51.23 339.0
51.275 359.0
51.32 380.0
51.365 346.0
51.41 349.0
51.455 337.0
51.5 337.0
51.545 381.0
51.59 378.0
51.635 334.0
51.68 388.0
51.725 424.0
51.77 482.0
51.815 465.0
51.86 419.0
51.905 468.0
51.95 479.0
51.995 465.0
52.04 426.0
52.085 355.0
52.13 300.0
52.175 352.0
52.22 304.0
52.265 334.0
52.31 306.0
52.355 305.0
52.4 309.0
52.445 309.0
52.49 304.0
52.535 346.0
52.58 419.0
52.625 437.0
52.67 521.0
52.715 615.0
52.76 707.0
52.805 882.0
52.85 768.0
52.895 616.0
52.94 568.0
52.985 491.0
53.03 474.0
53.075 523.0
53.12 476.0
53.165 506.0
53.21 433.0
53.255 414.0
53.3 364.0
53.345 385.0
53.39 353.0
53.435 392.0
53.48 376.0
53.525 339.0
53.57 321.0
53.615 319.0
53.66 312.0
53.705 334.0
53.75 308.0
53.795 324.0
53.84 316.0
53.885 350.0
53.93 366.0
53.975 350.0
54.02 314.0
54.065 311.0
54.11 305.0
54.155 325.0
54.2 312.0
54.245 321.0
54.29 370.0
54.335 379.0
54.38 421.0
54.425 477.0
54.47 512.0
54.515 601.0
54.56 702.0
54.605 954.0
54.65 889.0
54.695 747.0
54.74 674.0
54.785 685.0
54.83 684.0
54.875 716.0
54.92 739.0
54.965 756.0
55.01 759.0
55.055 650.0
55.1 619.0
55.145 673.0
55.19 941.0
55.235 1358.0
55.28 1511.0
55.325 1080.0
55.37 1196.0
55.415 1805.0
55.46 1414.0
55.505 764.0
55.55 637.0
55.595 652.0
55.64 551.0
55.685 466.0
55.73 395.0
55.775 377.0
55.82 397.0
55.865 394.0
55.91 412.0
55.955 456.0
56.0 454.0
56.045 493.0
56.09 569.0
56.135 598.0
56.18 577.0
56.225 495.0
56.27 521.0
56.315 506.0
56.36 479.0
56.405 525.0
56.45 549.0
56.495 562.0
56.54 550.0
56.585 587.0
56.63 613.0
56.675 690.0
56.72 623.0
56.765 606.0
56.81 624.0
56.855 591.0
56.9 590.0
56.945 544.0
56.99 540.0
57.035 473.0
57.08 429.0
57.125 455.0
57.17 470.0
57.215 458.0
57.26 493.0
57.305 506.0
57.35 518.0
57.395 502.0
57.44 414.0
57.485 401.0
57.53 402.0
57.575 433.0
57.62 457.0
57.665 438.0
57.71 392.0
57.755 398.0
57.8 407.0
57.845 361.0
57.89 386.0
57.935 392.0
57.98 437.0
58.025 506.0
58.07 604.0
58.115 658.0
58.16 688.0
58.205 568.0
58.25 544.0
58.295 514.0
58.34 513.0
58.385 479.0
58.43 493.0
58.475 463.0
58.52 429.0
58.565 415.0
58.61 416.0
58.655 442.0
58.7 412.0
58.745 396.0
58.79 386.0
58.835 406.0
58.88 410.0
58.925 434.0
58.97 387.0
59.015 350.0
59.06 331.0
59.105 288.0
59.15 309.0
59.195 310.0
59.24 342.0
59.285 368.0
59.33 350.0
59.375 401.0
59.42 476.0
59.465 515.0
59.51 570.0
59.555 556.0
59.6 509.0
59.645 501.0
59.69 466.0
59.735 467.0
59.78 405.0
59.825 371.0
59.87 417.0
59.915 529.0
59.96 552.0
60.005 578.0
60.05 539.0
60.095 644.0
60.14 773.0
60.185 913.0
60.23 772.0
60.275 573.0
60.32 523.0
60.365 455.0
60.41 437.0
60.455 395.0
60.5 385.0
60.545 374.0
60.59 362.0
60.635 329.0
60.68 349.0
60.725 323.0
60.77 292.0
60.815 322.0
60.86 340.0
60.905 348.0
60.95 423.0
60.995 511.0
61.04 556.0
61.085 482.0
61.13 422.0
61.175 413.0
61.22 476.0
61.265 484.0
61.31 494.0
61.355 525.0
61.4 544.0
61.445 551.0
61.49 512.0
61.535 378.0
61.58 351.0
61.625 346.0
61.67 310.0
61.715 294.0
61.76 332.0
61.805 319.0
61.85 320.0
61.895 375.0
61.94 433.0
61.985 498.0