File: ISoD/xrd_data/HSC026_nachH2O_range_1.xy
2.00000 467.000
2.04500 467.000
2.09000 416.000
2.13500 402.000
2.18000 341.000
2.22500 341.000
2.27000 309.000
2.31500 323.000
2.36000 290.000
2.40500 310.000
2.45000 262.000
2.49500 267.000
2.54000 237.000
2.58500 260.000
2.63000 248.000
2.67500 236.000
2.72000 219.000
2.76500 238.000
2.81000 229.000
2.85500 233.000
2.90000 207.000
2.94500 232.000
2.99000 194.000
3.03500 202.000
3.08000 207.000
3.12500 192.000
3.17000 180.000
3.21500 197.000
3.26000 168.000
3.30500 178.000
3.35000 169.000
3.39500 184.000
3.44000 168.000
3.48500 175.000
3.53000 167.000
3.57500 159.000
3.62000 163.000
3.66500 163.000
3.71000 165.000
3.75500 157.000
3.80000 152.000
3.84500 150.000
3.89000 149.000
3.93500 155.000
3.98000 175.000
4.02500 176.000
4.07000 175.000
4.11500 141.000
4.16000 151.000
4.20500 147.000
4.25000 149.000
4.29500 173.000
4.34000 151.000
4.38500 147.000
4.43000 129.000
4.47500 159.000
4.52000 146.000
4.56500 157.000
4.61000 151.000
4.65500 159.000
4.70000 143.000
4.74500 148.000
4.79000 161.000
4.83500 152.000
4.88000 152.000
4.92500 161.000
4.97000 143.000
5.01500 159.000
5.06000 140.000
5.10500 138.000
5.15000 157.000
5.19500 137.000
5.24000 146.000
5.28500 150.000
5.33000 140.000
5.37500 151.000
5.42000 154.000
5.46500 123.000
5.51000 127.000
5.55500 139.000
5.60000 158.000
5.64500 125.000
5.69000 146.000
5.73500 147.000
5.78000 141.000
5.82500 137.000
5.87000 129.000
5.91500 153.000
5.96000 138.000
6.00500 166.000
6.05000 146.000
6.09500 134.000
6.14000 149.000
6.18500 134.000
6.23000 139.000
6.27500 133.000
6.32000 150.000
6.36500 142.000
6.41000 155.000
6.45500 136.000
6.50000 132.000
6.54500 149.000
6.59000 160.000
6.63500 140.000
6.68000 153.000
6.72500 161.000
6.77000 156.000
6.81500 161.000
6.86000 154.000
6.90500 146.000
6.95000 154.000
6.99500 132.000
7.04000 154.000
7.08500 140.000
7.13000 154.000
7.17500 156.000
7.22000 125.000
7.26500 160.000
7.31000 174.000
7.35500 138.000
7.40000 132.000
7.44500 149.000
7.49000 155.000
7.53500 147.000
7.58000 141.000
7.62500 163.000
7.67000 136.000
7.71500 148.000
7.76000 153.000
7.80500 170.000
7.85000 149.000
7.89500 153.000
7.94000 144.000
7.98500 148.000
8.03000 156.000
8.07500 154.000
8.12000 142.000
8.16500 152.000
8.21000 149.000
8.25500 155.000
8.30000 167.000
8.34500 168.000
8.39000 172.000
8.43500 185.000
8.48000 204.000
8.52500 196.000
8.57000 205.000
8.61500 205.000
8.66000 199.000
8.70500 184.000
8.75000 190.000
8.79500 160.000
8.84000 179.000
8.88500 180.000
8.93000 162.000
8.97500 161.000
9.02000 172.000
9.06500 168.000
9.11000 141.000
9.15500 154.000
9.20000 154.000
9.24500 149.000
9.29000 156.000
9.33500 147.000
9.38000 137.000
9.42500 153.000
9.47000 177.000
9.51500 158.000
9.56000 146.000
9.60500 154.000
9.65000 156.000
9.69500 151.000
9.74000 149.000
9.78500 167.000
9.83000 138.000
9.87500 166.000
9.92000 170.000
9.96500 172.000
10.01000 189.000
10.05500 153.000
10.10000 163.000
10.14500 153.000
10.19000 144.000
10.23500 147.000
10.28000 151.000
10.32500 161.000
10.37000 160.000
10.41500 149.000
10.46000 145.000
10.50500 168.000
10.55000 154.000
10.59500 141.000
10.64000 164.000
10.68500 161.000
10.73000 182.000
10.77500 179.000
10.82000 160.000
10.86500 155.000
10.91000 189.000
10.95500 154.000
11.00000 172.000
11.04500 180.000
11.09000 191.000
11.13500 206.000
11.18000 217.000
11.22500 214.000
11.27000 250.000
11.31500 262.000
11.36000 327.000
11.40500 361.000
11.45000 381.000
11.49500 445.000
11.54000 434.000
11.58500 462.000
11.63000 387.000
11.67500 382.000
11.72000 344.000
11.76500 309.000
11.81000 311.000
11.85500 316.000
11.90000 276.000
11.94500 273.000
11.99000 249.000
12.03500 225.000
12.08000 180.000
12.12500 170.000
12.17000 173.000
12.21500 169.000
12.26000 187.000
12.30500 155.000
12.35000 145.000
12.39500 157.000
12.44000 146.000
12.48500 158.000
12.53000 197.000
12.57500 155.000
12.62000 165.000
12.66500 180.000
12.71000 195.000
12.75500 164.000
12.80000 195.000
12.84500 197.000
12.89000 222.000
12.93500 193.000
12.98000 182.000
13.02500 200.000
13.07000 173.000
13.11500 188.000
13.16000 176.000
13.20500 179.000
13.25000 195.000
13.29500 193.000
13.34000 182.000
13.38500 169.000
13.43000 151.000
13.47500 151.000
13.52000 145.000
13.56500 157.000
13.61000 152.000
13.65500 140.000
13.70000 149.000
13.74500 158.000
13.79000 160.000
13.83500 143.000
13.88000 164.000
13.92500 142.000
13.97000 147.000
14.01500 159.000
14.06000 158.000
14.10500 150.000
14.15000 143.000
14.19500 152.000
14.24000 166.000
14.28500 167.000
14.33000 148.000
14.37500 142.000
14.42000 147.000
14.46500 139.000
14.51000 154.000
14.55500 178.000
14.60000 162.000
14.64500 173.000
14.69000 155.000
14.73500 141.000
14.78000 152.000
14.82500 169.000
14.87000 159.000
14.91500 142.000
14.96000 157.000
15.00500 169.000
15.05000 160.000
15.09500 141.000
15.14000 143.000
15.18500 143.000
15.23000 140.000
15.27500 153.000
15.32000 143.000
15.36500 152.000
15.41000 167.000
15.45500 167.000
15.50000 136.000
15.54500 157.000
15.59000 157.000
15.63500 172.000
15.68000 159.000
15.72500 154.000
15.77000 150.000
15.81500 164.000
15.86000 158.000
15.90500 175.000
15.95000 152.000
15.99500 156.000
16.04000 152.000
16.08500 171.000
16.13000 165.000
16.17500 159.000
16.22000 165.000
16.26500 174.000
16.31000 144.000
16.35500 161.000
16.40000 158.000
16.44500 161.000
16.49000 154.000
16.53500 150.000
16.58000 177.000
16.62500 168.000
16.67000 150.000
16.71500 153.000
16.76000 167.000
16.80500 165.000
16.85000 150.000
16.89500 169.000
16.94000 161.000
16.98500 151.000
17.03000 139.000
17.07500 175.000
17.12000 152.000
17.16500 143.000
17.21000 150.000
17.25500 176.000
17.30000 161.000
17.34500 161.000
17.39000 182.000
17.43500 171.000
17.48000 181.000
17.52500 168.000
17.57000 173.000
17.61500 164.000
17.66000 167.000
17.70500 143.000
17.75000 172.000
17.79500 177.000
17.84000 171.000
17.88500 198.000
17.93000 159.000
17.97500 170.000
18.02000 193.000
18.06500 150.000
18.11000 181.000
18.15500 210.000
18.20000 179.000
18.24500 185.000
18.29000 196.000
18.33500 177.000
18.38000 188.000
18.42500 190.000
18.47000 183.000
18.51500 187.000
18.56000 178.000
18.60500 177.000
18.65000 192.000
18.69500 198.000
18.74000 203.000
18.78500 180.000
18.83000 191.000
18.87500 199.000
18.92000 176.000
18.96500 178.000
19.01000 203.000
19.05500 184.000
19.10000 191.000
19.14500 197.000
19.19000 200.000
19.23500 185.000
19.28000 202.000
19.32500 206.000
19.37000 197.000
19.41500 173.000
19.46000 195.000
19.50500 201.000
19.55000 185.000
19.59500 191.000
19.64000 201.000
19.68500 201.000
19.73000 203.000
19.77500 198.000
19.82000 203.000
19.86500 200.000
19.91000 208.000
19.95500 192.000
20.00000 197.000
20.04500 194.000
20.09000 191.000
20.13500 189.000
20.18000 206.000
20.22500 216.000
20.27000 215.000
20.31500 242.000
20.36000 240.000
20.40500 188.000
20.45000 183.000
20.49500 199.000
20.54000 200.000
20.58500 205.000
20.63000 195.000
20.67500 191.000
20.72000 216.000
20.76500 194.000
20.81000 213.000
20.85500 198.000
20.90000 204.000
20.94500 214.000
20.99000 209.000
21.03500 215.000
21.08000 210.000
21.12500 213.000
21.17000 205.000
21.21500 194.000
21.26000 197.000
21.30500 206.000
21.35000 203.000
21.39500 196.000
21.44000 215.000
21.48500 227.000
21.53000 226.000
21.57500 211.000
21.62000 212.000
21.66500 207.000
21.71000 217.000
21.75500 217.000
21.80000 210.000
21.84500 197.000
21.89000 207.000
21.93500 184.000
21.98000 208.000
22.02500 210.000
22.07000 205.000
22.11500 230.000
22.16000 235.000
22.20500 229.000
22.25000 235.000
22.29500 229.000
22.34000 218.000
22.38500 218.000
22.43000 221.000
22.47500 221.000
22.52000 213.000
22.56500 231.000
22.61000 235.000
22.65500 220.000
22.70000 206.000
22.74500 197.000
22.79000 218.000
22.83500 218.000
22.88000 228.000
22.92500 236.000
22.97000 221.000
23.01500 244.000
23.06000 226.000
23.10500 235.000
23.15000 249.000
23.19500 238.000
23.24000 250.000
23.28500 229.000
23.33000 248.000
23.37500 230.000
23.42000 230.000
23.46500 228.000
23.51000 233.000
23.55500 226.000
23.60000 223.000
23.64500 253.000
23.69000 224.000
23.73500 236.000
23.78000 227.000
23.82500 260.000
23.87000 243.000
23.91500 222.000
23.96000 242.000
24.00500 241.000
24.05000 249.000
24.09500 276.000
24.14000 211.000
24.18500 257.000
24.23000 243.000
24.27500 250.000
24.32000 245.000
24.36500 227.000
24.41000 262.000
24.45500 256.000
24.50000 232.000
24.54500 257.000
24.59000 265.000
24.63500 245.000
24.68000 280.000
24.72500 267.000
24.77000 253.000
24.81500 269.000
24.86000 274.000
24.90500 259.000
24.95000 274.000
24.99500 280.000
25.04000 304.000
25.08500 286.000
25.13000 293.000
25.17500 312.000
25.22000 334.000
25.26500 360.000
25.31000 375.000
25.35500 376.000
25.40000 388.000
25.44500 440.000
25.49000 461.000
25.53500 482.000
25.58000 451.000
25.62500 452.000
25.67000 416.000
25.71500 364.000
25.76000 353.000
25.80500 339.000
25.85000 352.000
25.89500 314.000
25.94000 311.000
25.98500 295.000
26.03000 324.000
26.07500 294.000
26.12000 271.000
26.16500 282.000
26.21000 295.000
26.25500 286.000
26.30000 312.000
26.34500 292.000
26.39000 276.000
26.43500 290.000
26.48000 316.000
26.52500 299.000
26.57000 301.000
26.61500 291.000
26.66000 290.000
26.70500 297.000
26.75000 312.000
26.79500 315.000
26.84000 324.000
26.88500 313.000
26.93000 331.000
26.97500 336.000
27.02000 360.000
27.06500 400.000
27.11000 371.000
27.15500 412.000
27.20000 402.000
27.24500 429.000
27.29000 441.000
27.33500 442.000
27.38000 479.000
27.42500 477.000
27.47000 476.000
27.51500 484.000
27.56000 431.000
27.60500 402.000
27.65000 416.000
27.69500 341.000
27.74000 309.000
27.78500 295.000
27.83000 289.000
27.87500 281.000
27.92000 265.000
27.96500 263.000
28.01000 271.000
28.05500 242.000
28.10000 238.000
28.14500 236.000
28.19000 230.000
28.23500 249.000
28.28000 222.000
28.32500 209.000
28.37000 207.000
28.41500 229.000
28.46000 228.000
28.50500 208.000
28.55000 215.000
28.59500 198.000
28.64000 208.000
28.68500 198.000
28.73000 210.000
28.77500 208.000
28.82000 217.000
28.86500 203.000
28.91000 217.000
28.95500 205.000
29.00000 218.000
29.04500 206.000
29.09000 225.000
29.13500 193.000
29.18000 203.000
29.22500 230.000
29.27000 207.000
29.31500 228.000
29.36000 215.000
29.40500 198.000
29.45000 210.000
29.49500 190.000
29.54000 187.000
29.58500 205.000
29.63000 204.000
29.67500 206.000
29.72000 206.000
29.76500 201.000
29.81000 185.000
29.85500 200.000
29.90000 222.000
29.94500 210.000
29.99000 209.000
30.03500 200.000
30.08000 194.000
30.12500 206.000
30.17000 206.000
30.21500 222.000
30.26000 227.000
30.30500 203.000
30.35000 213.000
30.39500 247.000
30.44000 222.000
30.48500 240.000
30.53000 208.000
30.57500 222.000
30.62000 198.000
30.66500 189.000
30.71000 195.000
30.75500 192.000
30.80000 174.000
30.84500 176.000
30.89000 190.000
30.93500 192.000
30.98000 190.000
31.02500 186.000
31.07000 193.000
31.11500 165.000
31.16000 167.000
31.20500 176.000
31.25000 178.000
31.29500 190.000
31.34000 164.000
31.38500 176.000
31.43000 172.000
31.47500 175.000
31.52000 169.000
31.56500 177.000
31.61000 170.000
31.65500 190.000
31.70000 179.000
31.74500 169.000
31.79000 155.000
31.83500 159.000
31.88000 168.000
31.92500 164.000
31.97000 154.000
32.01500 168.000
32.06000 177.000
32.10500 145.000
32.15000 148.000
32.19500 164.000
32.24000 169.000
32.28500 172.000
32.33000 144.000
32.37500 174.000
32.42000 147.000
32.46500 151.000
32.51000 175.000
32.55500 149.000
32.60000 176.000
32.64500 149.000
32.69000 128.000
32.73500 150.000
32.78000 145.000
32.82500 167.000
32.87000 138.000
32.91500 163.000
32.96000 157.000
33.00500 136.000
33.05000 132.000
33.09500 151.000
33.14000 137.000
33.18500 136.000
33.23000 152.000
33.27500 139.000
33.32000 141.000
33.36500 140.000
33.41000 134.000
33.45500 133.000
33.50000 152.000
33.54500 136.000
33.59000 155.000
33.63500 133.000
33.68000 145.000
33.72500 166.000
33.77000 143.000
33.81500 133.000
33.86000 145.000
33.90500 143.000
33.95000 131.000
33.99500 138.000
34.04000 150.000
34.08500 153.000
34.13000 148.000
34.17500 140.000
34.22000 147.000
34.26500 138.000
34.31000 136.000
34.35500 138.000
34.40000 149.000
34.44500 139.000
34.49000 113.000
34.53500 111.000
34.58000 123.000
34.62500 143.000
34.67000 128.000
34.71500 140.000
34.76000 139.000
34.80500 143.000
34.85000 129.000
34.89500 129.000
34.94000 124.000
34.98500 140.000
35.03000 118.000
35.07500 125.000
35.12000 138.000
35.16500 134.000
35.21000 121.000
35.25500 123.000
35.30000 124.000
35.34500 113.000
35.39000 133.000
35.43500 121.000
35.48000 114.000
35.52500 119.000
35.57000 118.000
35.61500 131.000
35.66000 109.000
35.70500 134.000
35.75000 123.000
35.79500 117.000
35.84000 117.000
35.88500 115.000
35.93000 124.000
35.97500 115.000
36.02000 115.000
36.06500 122.000
36.11000 122.000
36.15500 85.000
36.20000 109.000
36.24500 105.000
36.29000 103.000
36.33500 117.000
36.38000 117.000
36.42500 113.000
36.47000 102.000
36.51500 116.000
36.56000 109.000
36.60500 97.000
36.65000 102.000
36.69500 121.000
36.74000 100.000
36.78500 102.000
36.83000 105.000
36.87500 113.000
36.92000 98.000
36.96500 99.000
37.01000 100.000
37.05500 98.000
37.10000 98.000
37.14500 114.000
37.19000 95.000
37.23500 97.000
37.28000 103.000
37.32500 105.000
37.37000 110.000
37.41500 110.000
37.46000 100.000
37.50500 106.000
37.55000 85.000
37.59500 101.000
37.64000 104.000
37.68500 97.000
37.73000 111.000
37.77500 95.000
37.82000 92.000
37.86500 98.000
37.91000 104.000
37.95500 105.000
38.00000 95.000
38.04500 116.000
38.09000 99.000
38.13500 116.000
38.18000 101.000
38.22500 96.000
38.27000 111.000
38.31500 104.000
38.36000 94.000
38.40500 100.000
38.45000 97.000
38.49500 91.000
38.54000 81.000
38.58500 93.000
38.63000 104.000
38.67500 98.000
38.72000 102.000
38.76500 99.000
38.81000 106.000
38.85500 99.000
38.90000 88.000
38.94500 95.000
38.99000 91.000
39.03500 101.000
39.08000 94.000
39.12500 97.000
39.17000 114.000
39.21500 99.000
39.26000 103.000
39.30500 95.000
39.35000 105.000
39.39500 88.000
39.44000 97.000
39.48500 93.000
39.53000 104.000
39.57500 100.000
39.62000 94.000
39.66500 99.000
39.71000 103.000
39.75500 101.000
39.80000 104.000
39.84500 98.000
39.89000 99.000
39.93500 105.000
39.98000 96.000
40.02500 96.000
40.07000 100.000
40.11500 107.000
40.16000 98.000
40.20500 98.000
40.25000 108.000
40.29500 107.000
40.34000 99.000
40.38500 98.000
40.43000 106.000
40.47500 105.000
40.52000 107.000
40.56500 107.000
40.61000 106.000
40.65500 102.000
40.70000 114.000
40.74500 101.000
40.79000 107.000
40.83500 105.000
40.88000 100.000
40.92500 98.000
40.97000 107.000
41.01500 110.000
41.06000 100.000
41.10500 109.000
41.15000 113.000
41.19500 100.000
41.24000 106.000
41.28500 109.000
41.33000 114.000
41.37500 100.000
41.42000 102.000
41.46500 116.000
41.51000 93.000
41.55500 118.000
41.60000 95.000
41.64500 92.000
41.69000 103.000
41.73500 112.000
41.78000 108.000
41.82500 89.000
41.87000 86.000
41.91500 99.000
41.96000 92.000
42.00500 99.000
42.05000 94.000
42.09500 80.000
42.14000 105.000
42.18500 88.000
42.23000 85.000
42.27500 93.000
42.32000 100.000
42.36500 91.000
42.41000 105.000
42.45500 93.000
42.50000 91.000
42.54500 104.000
42.59000 91.000
42.63500 110.000
42.68000 94.000
42.72500 105.000
42.77000 98.000
42.81500 105.000
42.86000 98.000
42.90500 85.000
42.95000 105.000
42.99500 102.000
43.04000 89.000
43.08500 104.000
43.13000 90.000
43.17500 89.000
43.22000 100.000
43.26500 99.000
43.31000 81.000
43.35500 110.000
43.40000 87.000
43.44500 92.000
43.49000 96.000
43.53500 86.000
43.58000 96.000
43.62500 85.000
43.67000 95.000
43.71500 106.000
43.76000 90.000
43.80500 101.000
43.85000 92.000
43.89500 93.000
43.94000 113.000
43.98500 78.000
44.03000 104.000
44.07500 104.000
44.12000 79.000
44.16500 97.000
44.21000 95.000
44.25500 97.000
44.30000 99.000
44.34500 90.000
44.39000 98.000
44.43500 96.000
44.48000 92.000
44.52500 85.000
44.57000 80.000
44.61500 91.000
44.66000 91.000
44.70500 94.000
44.75000 92.000
44.79500 86.000
44.84000 92.000
44.88500 86.000
44.93000 102.000
44.97500 97.000
45.02000 91.000
45.06500 105.000
45.11000 92.000
45.15500 98.000
45.20000 78.000
45.24500 95.000
45.29000 98.000
45.33500 85.000
45.38000 83.000
45.42500 94.000
45.47000 94.000
45.51500 101.000
45.56000 95.000
45.60500 91.000
45.65000 98.000
45.69500 97.000
45.74000 92.000
45.78500 112.000
45.83000 88.000
45.87500 86.000
45.92000 91.000
45.96500 76.000
46.01000 98.000
46.05500 95.000
46.10000 86.000
46.14500 92.000
46.19000 72.000
46.23500 81.000
46.28000 88.000
46.32500 98.000
46.37000 98.000
46.41500 93.000
46.46000 92.000
46.50500 86.000
46.55000 97.000
46.59500 83.000
46.64000 97.000
46.68500 88.000
46.73000 88.000
46.77500 89.000
46.82000 85.000
46.86500 84.000
46.91000 73.000
46.95500 75.000
47.00000 87.000
47.04500 95.000
47.09000 84.000
47.13500 92.000
47.18000 85.000
47.22500 87.000
47.27000 88.000
47.31500 89.000
47.36000 79.000
47.40500 85.000
47.45000 84.000
47.49500 91.000
47.54000 87.000
47.58500 83.000
47.63000 89.000
47.67500 82.000
47.72000 88.000
47.76500 91.000
47.81000 86.000
47.85500 98.000
47.90000 87.000
47.94500 100.000
47.99000 77.000
48.03500 76.000
48.08000 104.000
48.12500 107.000
48.17000 93.000
48.21500 69.000
48.26000 86.000
48.30500 75.000
48.35000 81.000
48.39500 75.000
48.44000 79.000
48.48500 77.000
48.53000 77.000
48.57500 72.000
48.62000 88.000
48.66500 80.000
48.71000 93.000
48.75500 82.000
48.80000 84.000
48.84500 93.000
48.89000 88.000
48.93500 86.000
48.98000 88.000
49.02500 69.000
49.07000 71.000
49.11500 70.000
49.16000 76.000
49.20500 61.000
49.25000 84.000
49.29500 76.000
49.34000 76.000
49.38500 78.000
49.43000 86.000
49.47500 87.000
49.52000 89.000
49.56500 80.000
49.61000 89.000
49.65500 85.000
49.70000 69.000
49.74500 87.000
49.79000 72.000
49.83500 78.000
49.88000 80.000
49.92500 75.000
49.97000 75.000
50.01500 77.000
50.06000 79.000
50.10500 66.000
50.15000 94.000
50.19500 65.000
50.24000 80.000
50.28500 83.000
50.33000 75.000
50.37500 73.000
50.42000 80.000
50.46500 87.000
50.51000 75.000
50.55500 75.000
50.60000 72.000
50.64500 71.000
50.69000 73.000
50.73500 76.000
50.78000 76.000
50.82500 68.000
50.87000 76.000
50.91500 59.000
50.96000 74.000
51.00500 86.000
51.05000 80.000
51.09500 68.000
51.14000 79.000
51.18500 82.000
51.23000 76.000
51.27500 70.000
51.32000 76.000
51.36500 73.000
51.41000 88.000
51.45500 80.000
51.50000 81.000
51.54500 78.000
51.59000 72.000
51.63500 80.000
51.68000 76.000
51.72500 86.000
51.77000 80.000
51.81500 77.000
51.86000 75.000
51.90500 75.000
51.95000 83.000
51.99500 77.000
52.04000 89.000
52.08500 89.000
52.13000 84.000
52.17500 85.000
52.22000 78.000
52.26500 76.000
52.31000 78.000
52.35500 75.000
52.40000 70.000
52.44500 77.000
52.49000 78.000
52.53500 71.000
52.58000 75.000
52.62500 76.000
52.67000 66.000
52.71500 79.000
52.76000 81.000
52.80500 88.000
52.85000 82.000
52.89500 72.000
52.94000 70.000
52.98500 87.000
53.03000 84.000
53.07500 72.000
53.12000 82.000
53.16500 81.000
53.21000 68.000
53.25500 87.000
53.30000 81.000
53.34500 84.000
53.39000 80.000
53.43500 74.000
53.48000 76.000
53.52500 88.000
53.57000 81.000
53.61500 72.000
53.66000 62.000
53.70500 80.000
53.75000 76.000
53.79500 88.000
53.84000 77.000
53.88500 75.000
53.93000 79.000
53.97500 87.000
54.02000 69.000
54.06500 101.000
54.11000 86.000
54.15500 77.000
54.20000 78.000
54.24500 84.000
54.29000 69.000
54.33500 89.000
54.38000 75.000
54.42500 72.000
54.47000 81.000
54.51500 69.000
54.56000 74.000
54.60500 73.000
54.65000 78.000
54.69500 72.000
54.74000 73.000
54.78500 89.000
54.83000 72.000
54.87500 85.000
54.92000 75.000
54.96500 84.000
55.01000 83.000
55.05500 88.000
55.10000 74.000
55.14500 81.000
55.19000 64.000
55.23500 93.000
55.28000 66.000
55.32500 70.000
55.37000 70.000
55.41500 79.000
55.46000 86.000
55.50500 75.000
55.55000 62.000
55.59500 81.000
55.64000 72.000
55.68500 71.000
55.73000 71.000
55.77500 84.000
55.82000 73.000
55.86500 77.000
55.91000 65.000
55.95500 84.000
56.00000 68.000
56.04500 81.000
56.09000 86.000
56.13500 77.000
56.18000 81.000
56.22500 65.000
56.27000 71.000
56.31500 83.000
56.36000 71.000
56.40500 72.000
56.45000 65.000
56.49500 75.000
56.54000 79.000
56.58500 81.000
56.63000 72.000
56.67500 64.000
56.72000 64.000
56.76500 78.000
56.81000 75.000
56.85500 66.000
56.90000 64.000
56.94500 79.000
56.99000 64.000
57.03500 76.000
57.08000 68.000
57.12500 68.000
57.17000 79.000
57.21500 89.000
57.26000 77.000
57.30500 78.000
57.35000 72.000
57.39500 76.000
57.44000 87.000
57.48500 76.000
57.53000 77.000
57.57500 76.000
57.62000 57.000
57.66500 71.000
57.71000 65.000
57.75500 75.000
57.80000 76.000
57.84500 73.000
57.89000 76.000
57.93500 68.000
57.98000 81.000
58.02500 63.000
58.07000 66.000
58.11500 77.000
58.16000 69.000
58.20500 78.000
58.25000 64.000
58.29500 67.000
58.34000 81.000
58.38500 61.000
58.43000 79.000
58.47500 74.000
58.52000 77.000
58.56500 74.000
58.61000 73.000
58.65500 78.000
58.70000 71.000
58.74500 61.000
58.79000 78.000
58.83500 80.000
58.88000 74.000
58.92500 71.000
58.97000 68.000
59.01500 75.000
59.06000 80.000
59.10500 70.000
59.15000 74.000
59.19500 76.000
59.24000 78.000
59.28500 73.000
59.33000 83.000
59.37500 90.000
59.42000 75.000
59.46500 70.000
59.51000 69.000
59.55500 66.000
59.60000 84.000
59.64500 83.000
59.69000 74.000
59.73500 79.000
59.78000 79.000
59.82500 77.000
59.87000 72.000
59.91500 82.000
59.96000 65.000
60.00500 71.000
60.05000 79.000
60.09500 66.000
60.14000 79.000
60.18500 72.000
60.23000 71.000
60.27500 74.000
60.32000 78.000
60.36500 69.000
60.41000 66.000
60.45500 59.000
60.50000 68.000
60.54500 70.000
60.59000 82.000
60.63500 67.000
60.68000 69.000
60.72500 62.000
60.77000 76.000
60.81500 63.000
60.86000 77.000
60.90500 85.000
60.95000 74.000
60.99500 55.000
61.04000 64.000
61.08500 65.000
61.13000 85.000
61.17500 68.000
61.22000 68.000
61.26500 66.000
61.31000 71.000
61.35500 70.000
61.40000 58.000
61.44500 81.000
61.49000 72.000
61.53500 93.000
61.58000 66.000
61.62500 75.000
61.67000 87.000
61.71500 73.000
61.76000 67.000
61.80500 57.000
61.85000 61.000
61.89500 77.000
61.94000 58.000
61.98500 69.000