File: ISoD/xrd_data/HSC006A.xy
2.00000 366.000
2.04500 330.000
2.09000 355.000
2.13500 319.000
2.18000 340.000
2.22500 293.000
2.27000 294.000
2.31500 294.000
2.36000 296.000
2.40500 308.000
2.45000 257.000
2.49500 276.000
2.54000 264.000
2.58500 280.000
2.63000 268.000
2.67500 248.000
2.72000 247.000
2.76500 241.000
2.81000 246.000
2.85500 244.000
2.90000 235.000
2.94500 236.000
2.99000 245.000
3.03500 229.000
3.08000 242.000
3.12500 202.000
3.17000 216.000
3.21500 207.000
3.26000 207.000
3.30500 227.000
3.35000 241.000
3.39500 221.000
3.44000 224.000
3.48500 245.000
3.53000 211.000
3.57500 208.000
3.62000 221.000
3.66500 223.000
3.71000 232.000
3.75500 220.000
3.80000 227.000
3.84500 219.000
3.89000 232.000
3.93500 237.000
3.98000 217.000
4.02500 228.000
4.07000 206.000
4.11500 209.000
4.16000 224.000
4.20500 205.000
4.25000 216.000
4.29500 217.000
4.34000 213.000
4.38500 224.000
4.43000 209.000
4.47500 221.000
4.52000 231.000
4.56500 218.000
4.61000 238.000
4.65500 232.000
4.70000 219.000
4.74500 225.000
4.79000 214.000
4.83500 241.000
4.88000 226.000
4.92500 221.000
4.97000 224.000
5.01500 222.000
5.06000 217.000
5.10500 230.000
5.15000 217.000
5.19500 253.000
5.24000 246.000
5.28500 237.000
5.33000 230.000
5.37500 221.000
5.42000 259.000
5.46500 252.000
5.51000 217.000
5.55500 224.000
5.60000 234.000
5.64500 247.000
5.69000 237.000
5.73500 265.000
5.78000 230.000
5.82500 257.000
5.87000 238.000
5.91500 260.000
5.96000 250.000
6.00500 268.000
6.05000 271.000
6.09500 242.000
6.14000 253.000
6.18500 257.000
6.23000 273.000
6.27500 252.000
6.32000 261.000
6.36500 276.000
6.41000 259.000
6.45500 255.000
6.50000 275.000
6.54500 262.000
6.59000 277.000
6.63500 291.000
6.68000 270.000
6.72500 281.000
6.77000 241.000
6.81500 251.000
6.86000 235.000
6.90500 220.000
6.95000 216.000
6.99500 257.000
7.04000 225.000
7.08500 242.000
7.13000 233.000
7.17500 239.000
7.22000 211.000
7.26500 234.000
7.31000 207.000
7.35500 236.000
7.40000 247.000
7.44500 252.000
7.49000 228.000
7.53500 254.000
7.58000 234.000
7.62500 232.000
7.67000 221.000
7.71500 223.000
7.76000 234.000
7.80500 244.000
7.85000 240.000
7.89500 250.000
7.94000 228.000
7.98500 229.000
8.03000 235.000
8.07500 227.000
8.12000 228.000
8.16500 229.000
8.21000 219.000
8.25500 236.000
8.30000 258.000
8.34500 251.000
8.39000 226.000
8.43500 251.000
8.48000 238.000
8.52500 263.000
8.57000 254.000
8.61500 260.000
8.66000 263.000
8.70500 268.000
8.75000 294.000
8.79500 269.000
8.84000 295.000
8.88500 266.000
8.93000 309.000
8.97500 331.000
9.02000 316.000
9.06500 341.000
9.11000 333.000
9.15500 377.000
9.20000 381.000
9.24500 406.000
9.29000 407.000
9.33500 403.000
9.38000 457.000
9.42500 453.000
9.47000 450.000
9.51500 472.000
9.56000 477.000
9.60500 391.000
9.65000 397.000
9.69500 351.000
9.74000 331.000
9.78500 306.000
9.83000 297.000
9.87500 305.000
9.92000 266.000
9.96500 273.000
10.01000 274.000
10.05500 268.000
10.10000 266.000
10.14500 277.000
10.19000 266.000
10.23500 243.000
10.28000 255.000
10.32500 250.000
10.37000 246.000
10.41500 269.000
10.46000 234.000
10.50500 258.000
10.55000 242.000
10.59500 231.000
10.64000 219.000
10.68500 230.000
10.73000 258.000
10.77500 234.000
10.82000 226.000
10.86500 229.000
10.91000 237.000
10.95500 251.000
11.00000 217.000
11.04500 230.000
11.09000 241.000
11.13500 239.000
11.18000 242.000
11.22500 218.000
11.27000 238.000
11.31500 229.000
11.36000 214.000
11.40500 240.000
11.45000 236.000
11.49500 225.000
11.54000 221.000
11.58500 241.000
11.63000 220.000
11.67500 230.000
11.72000 227.000
11.76500 239.000
11.81000 266.000
11.85500 271.000
11.90000 263.000
11.94500 306.000
11.99000 485.000
12.03500 684.000
12.08000 1193.000
12.12500 1306.000
12.17000 536.000
12.21500 438.000
12.26000 346.000
12.30500 330.000
12.35000 334.000
12.39500 340.000
12.44000 305.000
12.48500 300.000
12.53000 316.000
12.57500 328.000
12.62000 303.000
12.66500 317.000
12.71000 308.000
12.75500 276.000
12.80000 305.000
12.84500 305.000
12.89000 318.000
12.93500 304.000
12.98000 318.000
13.02500 310.000
13.07000 331.000
13.11500 300.000
13.16000 351.000
13.20500 374.000
13.25000 425.000
13.29500 459.000
13.34000 421.000
13.38500 408.000
13.43000 346.000
13.47500 305.000
13.52000 320.000
13.56500 300.000
13.61000 329.000
13.65500 286.000
13.70000 342.000
13.74500 322.000
13.79000 355.000
13.83500 355.000
13.88000 300.000
13.92500 300.000
13.97000 295.000
14.01500 279.000
14.06000 265.000
14.10500 267.000
14.15000 262.000
14.19500 276.000
14.24000 261.000
14.28500 258.000
14.33000 254.000
14.37500 251.000
14.42000 241.000
14.46500 255.000
14.51000 234.000
14.55500 230.000
14.60000 258.000
14.64500 257.000
14.69000 269.000
14.73500 241.000
14.78000 254.000
14.82500 251.000
14.87000 268.000
14.91500 267.000
14.96000 263.000
15.00500 252.000
15.05000 234.000
15.09500 276.000
15.14000 252.000
15.18500 243.000
15.23000 251.000
15.27500 239.000
15.32000 238.000
15.36500 260.000
15.41000 248.000
15.45500 260.000
15.50000 244.000
15.54500 258.000
15.59000 254.000
15.63500 246.000
15.68000 278.000
15.72500 254.000
15.77000 250.000
15.81500 252.000
15.86000 266.000
15.90500 264.000
15.95000 245.000
15.99500 274.000
16.04000 254.000
16.08500 264.000
16.13000 257.000
16.17500 267.000
16.22000 258.000
16.26500 283.000
16.31000 263.000
16.35500 245.000
16.40000 234.000
16.44500 246.000
16.49000 245.000
16.53500 231.000
16.58000 252.000
16.62500 262.000
16.67000 274.000
16.71500 286.000
16.76000 281.000
16.80500 254.000
16.85000 278.000
16.89500 259.000
16.94000 257.000
16.98500 270.000
17.03000 270.000
17.07500 254.000
17.12000 261.000
17.16500 283.000
17.21000 308.000
17.25500 291.000
17.30000 264.000
17.34500 288.000
17.39000 277.000
17.43500 264.000
17.48000 284.000
17.52500 300.000
17.57000 308.000
17.61500 293.000
17.66000 278.000
17.70500 290.000
17.75000 307.000
17.79500 277.000
17.84000 297.000
17.88500 307.000
17.93000 312.000
17.97500 315.000
18.02000 297.000
18.06500 311.000
18.11000 282.000
18.15500 330.000
18.20000 316.000
18.24500 332.000
18.29000 308.000
18.33500 344.000
18.38000 315.000
18.42500 353.000
18.47000 353.000
18.51500 355.000
18.56000 344.000
18.60500 374.000
18.65000 385.000
18.69500 391.000
18.74000 416.000
18.78500 414.000
18.83000 395.000
18.87500 418.000
18.92000 422.000
18.96500 441.000
19.01000 479.000
19.05500 467.000
19.10000 484.000
19.14500 485.000
19.19000 488.000
19.23500 462.000
19.28000 469.000
19.32500 438.000
19.37000 473.000
19.41500 480.000
19.46000 452.000
19.50500 438.000
19.55000 430.000
19.59500 434.000
19.64000 440.000
19.68500 461.000
19.73000 464.000
19.77500 513.000
19.82000 501.000
19.86500 504.000
19.91000 655.000
19.95500 793.000
20.00000 928.000
20.04500 940.000
20.09000 801.000
20.13500 633.000
20.18000 523.000
20.22500 477.000
20.27000 403.000
20.31500 414.000
20.36000 381.000
20.40500 385.000
20.45000 348.000
20.49500 385.000
20.54000 385.000
20.58500 352.000
20.63000 339.000
20.67500 388.000
20.72000 362.000
20.76500 350.000
20.81000 361.000
20.85500 402.000
20.90000 415.000
20.94500 526.000
20.99000 760.000
21.03500 1137.000
21.08000 882.000
21.12500 590.000
21.17000 530.000
21.21500 536.000
21.26000 512.000
21.30500 483.000
21.35000 438.000
21.39500 469.000
21.44000 457.000
21.48500 445.000
21.53000 456.000
21.57500 467.000
21.62000 455.000
21.66500 472.000
21.71000 440.000
21.75500 472.000
21.80000 437.000
21.84500 415.000
21.89000 478.000
21.93500 499.000
21.98000 541.000
22.02500 571.000
22.07000 638.000
22.11500 626.000
22.16000 585.000
22.20500 472.000
22.25000 452.000
22.29500 398.000
22.34000 372.000
22.38500 419.000
22.43000 377.000
22.47500 398.000
22.52000 351.000
22.56500 334.000
22.61000 370.000
22.65500 340.000
22.70000 324.000
22.74500 363.000
22.79000 337.000
22.83500 355.000
22.88000 340.000
22.92500 351.000
22.97000 333.000
23.01500 305.000
23.06000 324.000
23.10500 345.000
23.15000 328.000
23.19500 347.000
23.24000 315.000
23.28500 309.000
23.33000 325.000
23.37500 337.000
23.42000 311.000
23.46500 319.000
23.51000 314.000
23.55500 307.000
23.60000 330.000
23.64500 335.000
23.69000 323.000
23.73500 339.000
23.78000 308.000
23.82500 334.000
23.87000 303.000
23.91500 307.000
23.96000 288.000
24.00500 331.000
24.05000 301.000
24.09500 324.000
24.14000 315.000
24.18500 326.000
24.23000 352.000
24.27500 366.000
24.32000 423.000
24.36500 410.000
24.41000 353.000
24.45500 314.000
24.50000 318.000
24.54500 366.000
24.59000 330.000
24.63500 317.000
24.68000 354.000
24.72500 344.000
24.77000 324.000
24.81500 332.000
24.86000 355.000
24.90500 347.000
24.95000 367.000
24.99500 362.000
25.04000 338.000
25.08500 330.000
25.13000 348.000
25.17500 356.000
25.22000 382.000
25.26500 346.000
25.31000 363.000
25.35500 335.000
25.40000 339.000
25.44500 304.000
25.49000 350.000
25.53500 349.000
25.58000 345.000
25.62500 342.000
25.67000 346.000
25.71500 334.000
25.76000 364.000
25.80500 320.000
25.85000 326.000
25.89500 327.000
25.94000 336.000
25.98500 323.000
26.03000 327.000
26.07500 324.000
26.12000 355.000
26.16500 339.000
26.21000 364.000
26.25500 327.000
26.30000 334.000
26.34500 366.000
26.39000 376.000
26.43500 369.000
26.48000 356.000
26.52500 383.000
26.57000 358.000
26.61500 382.000
26.66000 372.000
26.70500 373.000
26.75000 429.000
26.79500 437.000
26.84000 405.000
26.88500 409.000
26.93000 382.000
26.97500 396.000
27.02000 356.000
27.06500 373.000
27.11000 382.000
27.15500 350.000
27.20000 355.000
27.24500 358.000
27.29000 387.000
27.33500 367.000
27.38000 380.000
27.42500 365.000
27.47000 347.000
27.51500 350.000
27.56000 355.000
27.60500 357.000
27.65000 372.000
27.69500 376.000
27.74000 343.000
27.78500 367.000
27.83000 370.000
27.87500 363.000
27.92000 373.000
27.96500 375.000
28.01000 377.000
28.05500 378.000
28.10000 402.000
28.14500 371.000
28.19000 373.000
28.23500 380.000
28.28000 399.000
28.32500 402.000
28.37000 410.000
28.41500 422.000
28.46000 395.000
28.50500 427.000
28.55000 438.000
28.59500 462.000
28.64000 459.000
28.68500 462.000
28.73000 532.000
28.77500 516.000
28.82000 580.000
28.86500 530.000
28.91000 486.000
28.95500 534.000
29.00000 509.000
29.04500 487.000
29.09000 470.000
29.13500 462.000
29.18000 424.000
29.22500 409.000
29.27000 402.000
29.31500 380.000
29.36000 409.000
29.40500 368.000
29.45000 369.000
29.49500 367.000
29.54000 347.000
29.58500 361.000
29.63000 303.000
29.67500 354.000
29.72000 325.000
29.76500 324.000
29.81000 349.000
29.85500 344.000
29.90000 297.000
29.94500 302.000
29.99000 314.000
30.03500 310.000
30.08000 306.000
30.12500 289.000
30.17000 285.000
30.21500 291.000
30.26000 270.000
30.30500 293.000
30.35000 263.000
30.39500 277.000
30.44000 272.000
30.48500 273.000
30.53000 278.000
30.57500 278.000
30.62000 256.000
30.66500 261.000
30.71000 271.000
30.75500 296.000
30.80000 261.000
30.84500 249.000
30.89000 289.000
30.93500 266.000
30.98000 269.000
31.02500 271.000
31.07000 265.000
31.11500 265.000
31.16000 262.000
31.20500 299.000
31.25000 278.000
31.29500 280.000
31.34000 273.000
31.38500 273.000
31.43000 255.000
31.47500 266.000
31.52000 287.000
31.56500 268.000
31.61000 265.000
31.65500 253.000
31.70000 279.000
31.74500 300.000
31.79000 293.000
31.83500 286.000
31.88000 286.000
31.92500 291.000
31.97000 304.000
32.01500 323.000
32.06000 357.000
32.10500 356.000
32.15000 394.000
32.19500 512.000
32.24000 645.000
32.28500 861.000
32.33000 1185.000
32.37500 1575.000
32.42000 1399.000
32.46500 1058.000
32.51000 919.000
32.55500 824.000
32.60000 783.000
32.64500 661.000
32.69000 654.000
32.73500 623.000
32.78000 611.000
32.82500 572.000
32.87000 560.000
32.91500 594.000
32.96000 602.000
33.00500 681.000
33.05000 749.000
33.09500 774.000
33.14000 706.000
33.18500 567.000
33.23000 473.000
33.27500 458.000
33.32000 446.000
33.36500 407.000
33.41000 374.000
33.45500 354.000
33.50000 344.000
33.54500 360.000
33.59000 346.000
33.63500 346.000
33.68000 351.000
33.72500 347.000
33.77000 321.000
33.81500 297.000
33.86000 306.000
33.90500 311.000
33.95000 284.000
33.99500 269.000
34.04000 292.000
34.08500 266.000
34.13000 308.000
34.17500 272.000
34.22000 263.000
34.26500 248.000
34.31000 263.000
34.35500 276.000
34.40000 280.000
34.44500 266.000
34.49000 260.000
34.53500 263.000
34.58000 266.000
34.62500 260.000
34.67000 244.000
34.71500 243.000
34.76000 268.000
34.80500 276.000
34.85000 259.000
34.89500 285.000
34.94000 316.000
34.98500 319.000
35.03000 288.000
35.07500 377.000
35.12000 359.000
35.16500 366.000
35.21000 345.000
35.25500 334.000
35.30000 325.000
35.34500 298.000
35.39000 256.000
35.43500 244.000
35.48000 267.000
35.52500 255.000
35.57000 266.000
35.61500 230.000
35.66000 239.000
35.70500 241.000
35.75000 232.000
35.79500 225.000
35.84000 228.000
35.88500 247.000
35.93000 248.000
35.97500 217.000
36.02000 215.000
36.06500 227.000
36.11000 225.000
36.15500 230.000
36.20000 232.000
36.24500 223.000
36.29000 223.000
36.33500 220.000
36.38000 214.000
36.42500 202.000
36.47000 228.000
36.51500 198.000
36.56000 207.000
36.60500 208.000
36.65000 182.000
36.69500 196.000
36.74000 223.000
36.78500 218.000
36.83000 216.000
36.87500 230.000
36.92000 214.000
36.96500 193.000
37.01000 183.000
37.05500 210.000
37.10000 211.000
37.14500 236.000
37.19000 188.000
37.23500 198.000
37.28000 208.000
37.32500 189.000
37.37000 204.000
37.41500 202.000
37.46000 210.000
37.50500 185.000
37.55000 194.000
37.59500 189.000
37.64000 198.000
37.68500 196.000
37.73000 200.000
37.77500 198.000
37.82000 202.000
37.86500 189.000
37.91000 196.000
37.95500 215.000
38.00000 198.000
38.04500 203.000
38.09000 218.000
38.13500 210.000
38.18000 222.000
38.22500 236.000
38.27000 228.000
38.31500 221.000
38.36000 244.000
38.40500 238.000
38.45000 217.000
38.49500 219.000
38.54000 217.000
38.58500 211.000
38.63000 217.000
38.67500 201.000
38.72000 185.000
38.76500 200.000
38.81000 185.000
38.85500 199.000
38.90000 186.000
38.94500 205.000
38.99000 202.000
39.03500 181.000
39.08000 178.000
39.12500 174.000
39.17000 174.000
39.21500 183.000
39.26000 191.000
39.30500 190.000
39.35000 193.000
39.39500 180.000
39.44000 170.000
39.48500 179.000
39.53000 202.000
39.57500 180.000
39.62000 183.000
39.66500 187.000
39.71000 181.000
39.75500 183.000
39.80000 168.000
39.84500 185.000
39.89000 204.000
39.93500 188.000
39.98000 198.000
40.02500 191.000
40.07000 216.000
40.11500 207.000
40.16000 192.000
40.20500 183.000
40.25000 204.000
40.29500 200.000
40.34000 187.000
40.38500 191.000
40.43000 192.000
40.47500 183.000
40.52000 178.000
40.56500 192.000
40.61000 199.000
40.65500 215.000
40.70000 222.000
40.74500 213.000
40.79000 219.000
40.83500 206.000
40.88000 175.000
40.92500 186.000
40.97000 178.000
41.01500 196.000
41.06000 180.000
41.10500 160.000
41.15000 183.000
41.19500 186.000
41.24000 181.000
41.28500 173.000
41.33000 173.000
41.37500 180.000
41.42000 173.000
41.46500 194.000
41.51000 177.000
41.55500 177.000
41.60000 180.000
41.64500 182.000
41.69000 184.000
41.73500 169.000
41.78000 187.000
41.82500 170.000
41.87000 182.000
41.91500 181.000
41.96000 181.000
42.00500 171.000
42.05000 195.000
42.09500 181.000
42.14000 186.000
42.18500 192.000
42.23000 186.000
42.27500 179.000
42.32000 198.000
42.36500 185.000
42.41000 205.000
42.45500 195.000
42.50000 215.000
42.54500 225.000
42.59000 232.000
42.63500 256.000
42.68000 274.000
42.72500 356.000
42.77000 453.000
42.81500 618.000
42.86000 533.000
42.90500 394.000
42.95000 324.000
42.99500 342.000
43.04000 315.000
43.08500 314.000
43.13000 285.000
43.17500 295.000
43.22000 283.000
43.26500 264.000
43.31000 267.000
43.35500 295.000
43.40000 269.000
43.44500 235.000
43.49000 250.000
43.53500 240.000
43.58000 225.000
43.62500 237.000
43.67000 213.000
43.71500 209.000
43.76000 192.000
43.80500 218.000
43.85000 200.000
43.89500 202.000
43.94000 217.000
43.98500 189.000
44.03000 221.000
44.07500 242.000
44.12000 195.000
44.16500 204.000
44.21000 207.000
44.25500 206.000
44.30000 194.000
44.34500 214.000
44.39000 219.000
44.43500 215.000
44.48000 236.000
44.52500 284.000
44.57000 278.000
44.61500 312.000
44.66000 360.000
44.70500 360.000
44.75000 297.000
44.79500 286.000
44.84000 286.000
44.88500 269.000
44.93000 252.000
44.97500 275.000
45.02000 261.000
45.06500 267.000
45.11000 281.000
45.15500 265.000
45.20000 237.000
45.24500 221.000
45.29000 244.000
45.33500 261.000
45.38000 220.000
45.42500 235.000
45.47000 230.000
45.51500 248.000
45.56000 237.000
45.60500 220.000
45.65000 231.000
45.69500 222.000
45.74000 209.000
45.78500 221.000
45.83000 189.000
45.87500 209.000
45.92000 190.000
45.96500 200.000
46.01000 213.000
46.05500 219.000
46.10000 213.000
46.14500 247.000
46.19000 215.000
46.23500 229.000
46.28000 218.000
46.32500 207.000
46.37000 219.000
46.41500 214.000
46.46000 205.000
46.50500 196.000
46.55000 177.000
46.59500 219.000
46.64000 215.000
46.68500 207.000
46.73000 211.000
46.77500 212.000
46.82000 212.000
46.86500 217.000
46.91000 225.000
46.95500 191.000
47.00000 196.000
47.04500 204.000
47.09000 201.000
47.13500 207.000
47.18000 202.000
47.22500 211.000
47.27000 211.000
47.31500 233.000
47.36000 236.000
47.40500 222.000
47.45000 256.000
47.49500 260.000
47.54000 247.000
47.58500 253.000
47.63000 267.000
47.67500 242.000
47.72000 249.000
47.76500 238.000
47.81000 256.000
47.85500 223.000
47.90000 243.000
47.94500 242.000
47.99000 213.000
48.03500 225.000
48.08000 219.000
48.12500 214.000
48.17000 207.000
48.21500 229.000
48.26000 218.000
48.30500 206.000
48.35000 214.000
48.39500 205.000
48.44000 211.000
48.48500 203.000
48.53000 210.000
48.57500 204.000
48.62000 195.000
48.66500 200.000
48.71000 194.000
48.75500 208.000
48.80000 191.000
48.84500 204.000
48.89000 199.000
48.93500 188.000
48.98000 210.000
49.02500 184.000
49.07000 179.000
49.11500 208.000
49.16000 201.000
49.20500 220.000
49.25000 210.000
49.29500 230.000
49.34000 200.000
49.38500 207.000
49.43000 226.000
49.47500 230.000
49.52000 212.000
49.56500 237.000
49.61000 248.000
49.65500 271.000
49.70000 321.000
49.74500 351.000
49.79000 403.000
49.83500 589.000
49.88000 608.000
49.92500 445.000
49.97000 347.000
50.01500 287.000
50.06000 275.000
50.10500 259.000
50.15000 256.000
50.19500 232.000
50.24000 230.000
50.28500 242.000
50.33000 218.000
50.37500 219.000
50.42000 203.000
50.46500 204.000
50.51000 192.000
50.55500 193.000
50.60000 196.000
50.64500 182.000
50.69000 200.000
50.73500 191.000
50.78000 189.000
50.82500 191.000
50.87000 204.000
50.91500 190.000
50.96000 189.000
51.00500 180.000
51.05000 195.000
51.09500 188.000
51.14000 172.000
51.18500 193.000
51.23000 183.000
51.27500 168.000
51.32000 173.000
51.36500 188.000
51.41000 174.000
51.45500 161.000
51.50000 196.000
51.54500 198.000
51.59000 193.000
51.63500 179.000
51.68000 177.000
51.72500 174.000
51.77000 182.000
51.81500 184.000
51.86000 180.000
51.90500 180.000
51.95000 177.000
51.99500 183.000
52.04000 187.000
52.08500 176.000
52.13000 180.000
52.17500 177.000
52.22000 203.000
52.26500 192.000
52.31000 156.000
52.35500 186.000
52.40000 173.000
52.44500 160.000
52.49000 187.000
52.53500 184.000
52.58000 173.000
52.62500 200.000
52.67000 184.000
52.71500 178.000
52.76000 172.000
52.80500 197.000
52.85000 180.000
52.89500 187.000
52.94000 191.000
52.98500 185.000
53.03000 190.000
53.07500 171.000
53.12000 199.000
53.16500 210.000
53.21000 176.000
53.25500 179.000
53.30000 177.000
53.34500 173.000
53.39000 199.000
53.43500 200.000
53.48000 175.000
53.52500 189.000
53.57000 167.000
53.61500 175.000
53.66000 183.000
53.70500 176.000
53.75000 166.000
53.79500 188.000
53.84000 177.000
53.88500 190.000
53.93000 188.000
53.97500 176.000
54.02000 203.000
54.06500 184.000
54.11000 210.000
54.15500 202.000
54.20000 190.000
54.24500 194.000
54.29000 207.000
54.33500 210.000
54.38000 200.000
54.42500 195.000
54.47000 214.000
54.51500 202.000
54.56000 199.000
54.60500 211.000
54.65000 247.000
54.69500 253.000
54.74000 215.000
54.78500 197.000
54.83000 201.000
54.87500 181.000
54.92000 199.000
54.96500 201.000
55.01000 210.000
55.05500 201.000
55.10000 202.000
55.14500 200.000
55.19000 194.000
55.23500 206.000
55.28000 191.000
55.32500 186.000
55.37000 187.000
55.41500 187.000
55.46000 170.000
55.50500 167.000
55.55000 184.000
55.59500 176.000
55.64000 169.000
55.68500 160.000
55.73000 174.000
55.77500 161.000
55.82000 170.000
55.86500 157.000
55.91000 178.000
55.95500 178.000
56.00000 171.000
56.04500 158.000
56.09000 165.000
56.13500 168.000
56.18000 167.000
56.22500 168.000
56.27000 171.000
56.31500 174.000
56.36000 169.000
56.40500 174.000
56.45000 181.000
56.49500 172.000
56.54000 154.000
56.58500 169.000
56.63000 164.000
56.67500 165.000
56.72000 154.000
56.76500 166.000
56.81000 171.000
56.85500 161.000
56.90000 170.000
56.94500 165.000
56.99000 178.000
57.03500 155.000
57.08000 173.000
57.12500 180.000
57.17000 155.000
57.21500 161.000
57.26000 184.000
57.30500 168.000
57.35000 154.000
57.39500 188.000
57.44000 199.000
57.48500 205.000
57.53000 178.000
57.57500 212.000
57.62000 217.000
57.66500 232.000
57.71000 280.000
57.75500 270.000
57.80000 269.000
57.84500 218.000
57.89000 213.000
57.93500 209.000
57.98000 203.000
58.02500 184.000
58.07000 186.000
58.11500 159.000
58.16000 187.000
58.20500 169.000
58.25000 155.000
58.29500 177.000
58.34000 152.000
58.38500 176.000
58.43000 167.000
58.47500 173.000
58.52000 163.000
58.56500 162.000
58.61000 169.000
58.65500 158.000
58.70000 163.000
58.74500 187.000
58.79000 157.000
58.83500 159.000
58.88000 161.000
58.92500 172.000
58.97000 149.000
59.01500 169.000
59.06000 154.000
59.10500 189.000
59.15000 149.000
59.19500 161.000
59.24000 167.000
59.28500 135.000
59.33000 159.000
59.37500 144.000
59.42000 147.000
59.46500 166.000
59.51000 156.000
59.55500 165.000
59.60000 162.000
59.64500 162.000
59.69000 161.000
59.73500 163.000
59.78000 146.000
59.82500 169.000
59.87000 166.000
59.91500 153.000
59.96000 151.000
60.00500 152.000
60.05000 157.000
60.09500 180.000
60.14000 159.000
60.18500 142.000
60.23000 175.000
60.27500 135.000
60.32000 149.000
60.36500 157.000
60.41000 151.000
60.45500 157.000
60.50000 140.000
60.54500 124.000
60.59000 160.000
60.63500 158.000
60.68000 146.000
60.72500 151.000
60.77000 155.000
60.81500 142.000
60.86000 173.000
60.90500 165.000
60.95000 141.000
60.99500 148.000
61.04000 171.000
61.08500 147.000
61.13000 127.000
61.17500 158.000
61.22000 155.000
61.26500 153.000
61.31000 159.000
61.35500 160.000
61.40000 152.000
61.44500 160.000
61.49000 171.000
61.53500 181.000
61.58000 162.000
61.62500 148.000
61.67000 169.000
61.71500 169.000
61.76000 170.000
61.80500 174.000
61.85000 177.000
61.89500 153.000
61.94000 166.000
61.98500 171.000