File: ISoD/xrd_data/HSC026_nach_Photokat..xy
2.00000 514.000
2.04500 532.000
2.09000 467.000
2.13500 521.000
2.18000 453.000
2.22500 448.000
2.27000 406.000
2.31500 404.000
2.36000 392.000
2.40500 403.000
2.45000 365.000
2.49500 323.000
2.54000 335.000
2.58500 336.000
2.63000 303.000
2.67500 330.000
2.72000 295.000
2.76500 266.000
2.81000 293.000
2.85500 305.000
2.90000 251.000
2.94500 259.000
2.99000 236.000
3.03500 254.000
3.08000 229.000
3.12500 241.000
3.17000 223.000
3.21500 243.000
3.26000 237.000
3.30500 229.000
3.35000 210.000
3.39500 234.000
3.44000 226.000
3.48500 217.000
3.53000 229.000
3.57500 208.000
3.62000 206.000
3.66500 209.000
3.71000 235.000
3.75500 225.000
3.80000 220.000
3.84500 202.000
3.89000 191.000
3.93500 242.000
3.98000 201.000
4.02500 198.000
4.07000 204.000
4.11500 179.000
4.16000 189.000
4.20500 207.000
4.25000 215.000
4.29500 198.000
4.34000 184.000
4.38500 208.000
4.43000 201.000
4.47500 211.000
4.52000 197.000
4.56500 217.000
4.61000 195.000
4.65500 198.000
4.70000 215.000
4.74500 208.000
4.79000 194.000
4.83500 208.000
4.88000 219.000
4.92500 208.000
4.97000 193.000
5.01500 201.000
5.06000 189.000
5.10500 200.000
5.15000 178.000
5.19500 191.000
5.24000 203.000
5.28500 180.000
5.33000 205.000
5.37500 200.000
5.42000 190.000
5.46500 185.000
5.51000 191.000
5.55500 199.000
5.60000 216.000
5.64500 200.000
5.69000 194.000
5.73500 204.000
5.78000 189.000
5.82500 182.000
5.87000 221.000
5.91500 201.000
5.96000 188.000
6.00500 186.000
6.05000 208.000
6.09500 187.000
6.14000 181.000
6.18500 207.000
6.23000 211.000
6.27500 219.000
6.32000 228.000
6.36500 219.000
6.41000 209.000
6.45500 192.000
6.50000 215.000
6.54500 196.000
6.59000 187.000
6.63500 212.000
6.68000 194.000
6.72500 210.000
6.77000 200.000
6.81500 204.000
6.86000 202.000
6.90500 193.000
6.95000 218.000
6.99500 206.000
7.04000 187.000
7.08500 216.000
7.13000 208.000
7.17500 200.000
7.22000 169.000
7.26500 236.000
7.31000 193.000
7.35500 200.000
7.40000 204.000
7.44500 207.000
7.49000 165.000
7.53500 202.000
7.58000 197.000
7.62500 216.000
7.67000 199.000
7.71500 195.000
7.76000 213.000
7.80500 217.000
7.85000 224.000
7.89500 220.000
7.94000 233.000
7.98500 217.000
8.03000 214.000
8.07500 229.000
8.12000 212.000
8.16500 217.000
8.21000 206.000
8.25500 230.000
8.30000 227.000
8.34500 219.000
8.39000 257.000
8.43500 239.000
8.48000 249.000
8.52500 264.000
8.57000 276.000
8.61500 265.000
8.66000 271.000
8.70500 259.000
8.75000 253.000
8.79500 238.000
8.84000 248.000
8.88500 205.000
8.93000 208.000
8.97500 224.000
9.02000 208.000
9.06500 228.000
9.11000 209.000
9.15500 234.000
9.20000 189.000
9.24500 206.000
9.29000 200.000
9.33500 202.000
9.38000 228.000
9.42500 218.000
9.47000 202.000
9.51500 212.000
9.56000 207.000
9.60500 202.000
9.65000 199.000
9.69500 205.000
9.74000 195.000
9.78500 208.000
9.83000 206.000
9.87500 212.000
9.92000 212.000
9.96500 251.000
10.01000 206.000
10.05500 241.000
10.10000 230.000
10.14500 187.000
10.19000 223.000
10.23500 206.000
10.28000 198.000
10.32500 224.000
10.37000 208.000
10.41500 224.000
10.46000 211.000
10.50500 204.000
10.55000 206.000
10.59500 220.000
10.64000 219.000
10.68500 231.000
10.73000 214.000
10.77500 225.000
10.82000 223.000
10.86500 202.000
10.91000 206.000
10.95500 217.000
11.00000 241.000
11.04500 246.000
11.09000 269.000
11.13500 269.000
11.18000 265.000
11.22500 282.000
11.27000 356.000
11.31500 362.000
11.36000 420.000
11.40500 487.000
11.45000 583.000
11.49500 605.000
11.54000 614.000
11.58500 605.000
11.63000 595.000
11.67500 549.000
11.72000 488.000
11.76500 454.000
11.81000 432.000
11.85500 442.000
11.90000 444.000
11.94500 398.000
11.99000 351.000
12.03500 311.000
12.08000 304.000
12.12500 252.000
12.17000 235.000
12.21500 241.000
12.26000 227.000
12.30500 235.000
12.35000 228.000
12.39500 218.000
12.44000 233.000
12.48500 206.000
12.53000 232.000
12.57500 244.000
12.62000 217.000
12.66500 223.000
12.71000 213.000
12.75500 262.000
12.80000 260.000
12.84500 274.000
12.89000 262.000
12.93500 289.000
12.98000 262.000
13.02500 253.000
13.07000 253.000
13.11500 257.000
13.16000 248.000
13.20500 239.000
13.25000 235.000
13.29500 229.000
13.34000 243.000
13.38500 232.000
13.43000 226.000
13.47500 221.000
13.52000 235.000
13.56500 224.000
13.61000 220.000
13.65500 207.000
13.70000 248.000
13.74500 197.000
13.79000 231.000
13.83500 194.000
13.88000 201.000
13.92500 225.000
13.97000 207.000
14.01500 166.000
14.06000 229.000
14.10500 235.000
14.15000 236.000
14.19500 233.000
14.24000 229.000
14.28500 228.000
14.33000 221.000
14.37500 214.000
14.42000 217.000
14.46500 192.000
14.51000 199.000
14.55500 219.000
14.60000 197.000
14.64500 193.000
14.69000 213.000
14.73500 218.000
14.78000 208.000
14.82500 206.000
14.87000 194.000
14.91500 191.000
14.96000 218.000
15.00500 197.000
15.05000 205.000
15.09500 194.000
15.14000 182.000
15.18500 219.000
15.23000 200.000
15.27500 196.000
15.32000 205.000
15.36500 206.000
15.41000 206.000
15.45500 213.000
15.50000 209.000
15.54500 210.000
15.59000 222.000
15.63500 212.000
15.68000 225.000
15.72500 209.000
15.77000 223.000
15.81500 209.000
15.86000 217.000
15.90500 237.000
15.95000 200.000
15.99500 203.000
16.04000 221.000
16.08500 229.000
16.13000 225.000
16.17500 234.000
16.22000 219.000
16.26500 239.000
16.31000 225.000
16.35500 215.000
16.40000 238.000
16.44500 227.000
16.49000 231.000
16.53500 220.000
16.58000 225.000
16.62500 235.000
16.67000 230.000
16.71500 218.000
16.76000 214.000
16.80500 210.000
16.85000 213.000
16.89500 237.000
16.94000 207.000
16.98500 241.000
17.03000 214.000
17.07500 213.000
17.12000 201.000
17.16500 211.000
17.21000 222.000
17.25500 218.000
17.30000 240.000
17.34500 243.000
17.39000 217.000
17.43500 217.000
17.48000 226.000
17.52500 236.000
17.57000 227.000
17.61500 226.000
17.66000 261.000
17.70500 228.000
17.75000 235.000
17.79500 253.000
17.84000 229.000
17.88500 233.000
17.93000 254.000
17.97500 237.000
18.02000 247.000
18.06500 224.000
18.11000 236.000
18.15500 228.000
18.20000 254.000
18.24500 267.000
18.29000 240.000
18.33500 222.000
18.38000 248.000
18.42500 268.000
18.47000 249.000
18.51500 262.000
18.56000 256.000
18.60500 265.000
18.65000 270.000
18.69500 257.000
18.74000 256.000
18.78500 229.000
18.83000 274.000
18.87500 244.000
18.92000 244.000
18.96500 250.000
19.01000 287.000
19.05500 251.000
19.10000 260.000
19.14500 226.000
19.19000 232.000
19.23500 265.000
19.28000 288.000
19.32500 275.000
19.37000 237.000
19.41500 248.000
19.46000 285.000
19.50500 277.000
19.55000 247.000
19.59500 240.000
19.64000 291.000
19.68500 270.000
19.73000 282.000
19.77500 273.000
19.82000 266.000
19.86500 278.000
19.91000 269.000
19.95500 297.000
20.00000 272.000
20.04500 293.000
20.09000 291.000
20.13500 310.000
20.18000 245.000
20.22500 297.000
20.27000 260.000
20.31500 293.000
20.36000 249.000
20.40500 290.000
20.45000 280.000
20.49500 260.000
20.54000 253.000
20.58500 267.000
20.63000 265.000
20.67500 260.000
20.72000 292.000
20.76500 275.000
20.81000 233.000
20.85500 274.000
20.90000 263.000
20.94500 279.000
20.99000 289.000
21.03500 271.000
21.08000 301.000
21.12500 281.000
21.17000 272.000
21.21500 295.000
21.26000 289.000
21.30500 297.000
21.35000 286.000
21.39500 270.000
21.44000 276.000
21.48500 307.000
21.53000 289.000
21.57500 277.000
21.62000 303.000
21.66500 295.000
21.71000 284.000
21.75500 281.000
21.80000 303.000
21.84500 284.000
21.89000 296.000
21.93500 280.000
21.98000 273.000
22.02500 315.000
22.07000 305.000
22.11500 312.000
22.16000 281.000
22.20500 287.000
22.25000 275.000
22.29500 298.000
22.34000 295.000
22.38500 291.000
22.43000 307.000
22.47500 320.000
22.52000 303.000
22.56500 314.000
22.61000 317.000
22.65500 320.000
22.70000 328.000
22.74500 324.000
22.79000 309.000
22.83500 336.000
22.88000 306.000
22.92500 298.000
22.97000 291.000
23.01500 308.000
23.06000 310.000
23.10500 302.000
23.15000 301.000
23.19500 317.000
23.24000 298.000
23.28500 359.000
23.33000 304.000
23.37500 333.000
23.42000 349.000
23.46500 324.000
23.51000 348.000
23.55500 296.000
23.60000 323.000
23.64500 290.000
23.69000 306.000
23.73500 310.000
23.78000 307.000
23.82500 321.000
23.87000 325.000
23.91500 337.000
23.96000 320.000
24.00500 337.000
24.05000 388.000
24.09500 323.000
24.14000 328.000
24.18500 333.000
24.23000 346.000
24.27500 346.000
24.32000 320.000
24.36500 344.000
24.41000 326.000
24.45500 339.000
24.50000 334.000
24.54500 332.000
24.59000 338.000
24.63500 349.000
24.68000 365.000
24.72500 371.000
24.77000 390.000
24.81500 383.000
24.86000 351.000
24.90500 402.000
24.95000 401.000
24.99500 418.000
25.04000 375.000
25.08500 434.000
25.13000 411.000
25.17500 449.000
25.22000 471.000
25.26500 439.000
25.31000 499.000
25.35500 532.000
25.40000 550.000
25.44500 536.000
25.49000 615.000
25.53500 587.000
25.58000 638.000
25.62500 567.000
25.67000 579.000
25.71500 522.000
25.76000 511.000
25.80500 469.000
25.85000 449.000
25.89500 441.000
25.94000 438.000
25.98500 369.000
26.03000 406.000
26.07500 402.000
26.12000 387.000
26.16500 366.000
26.21000 397.000
26.25500 385.000
26.30000 372.000
26.34500 390.000
26.39000 399.000
26.43500 404.000
26.48000 383.000
26.52500 423.000
26.57000 423.000
26.61500 416.000
26.66000 404.000
26.70500 448.000
26.75000 396.000
26.79500 393.000
26.84000 416.000
26.88500 448.000
26.93000 448.000
26.97500 468.000
27.02000 508.000
27.06500 527.000
27.11000 554.000
27.15500 572.000
27.20000 541.000
27.24500 554.000
27.29000 600.000
27.33500 609.000
27.38000 603.000
27.42500 658.000
27.47000 671.000
27.51500 670.000
27.56000 635.000
27.60500 556.000
27.65000 531.000
27.69500 450.000
27.74000 433.000
27.78500 393.000
27.83000 391.000
27.87500 377.000
27.92000 354.000
27.96500 348.000
28.01000 344.000
28.05500 328.000
28.10000 324.000
28.14500 312.000
28.19000 314.000
28.23500 296.000
28.28000 307.000
28.32500 307.000
28.37000 272.000
28.41500 297.000
28.46000 294.000
28.50500 288.000
28.55000 286.000
28.59500 299.000
28.64000 282.000
28.68500 270.000
28.73000 301.000
28.77500 273.000
28.82000 284.000
28.86500 277.000
28.91000 282.000
28.95500 309.000
29.00000 253.000
29.04500 288.000
29.09000 275.000
29.13500 264.000
29.18000 257.000
29.22500 306.000
29.27000 286.000
29.31500 288.000
29.36000 256.000
29.40500 272.000
29.45000 271.000
29.49500 258.000
29.54000 289.000
29.58500 275.000
29.63000 272.000
29.67500 273.000
29.72000 286.000
29.76500 273.000
29.81000 262.000
29.85500 282.000
29.90000 273.000
29.94500 289.000
29.99000 297.000
30.03500 291.000
30.08000 294.000
30.12500 295.000
30.17000 316.000
30.21500 296.000
30.26000 317.000
30.30500 301.000
30.35000 315.000
30.39500 316.000
30.44000 283.000
30.48500 315.000
30.53000 301.000
30.57500 278.000
30.62000 282.000
30.66500 277.000
30.71000 287.000
30.75500 270.000
30.80000 274.000
30.84500 257.000
30.89000 257.000
30.93500 261.000
30.98000 256.000
31.02500 297.000
31.07000 260.000
31.11500 246.000
31.16000 226.000
31.20500 235.000
31.25000 254.000
31.29500 251.000
31.34000 220.000
31.38500 221.000
31.43000 228.000
31.47500 236.000
31.52000 214.000
31.56500 230.000
31.61000 221.000
31.65500 252.000
31.70000 241.000
31.74500 242.000
31.79000 201.000
31.83500 196.000
31.88000 225.000
31.92500 224.000
31.97000 219.000
32.01500 224.000
32.06000 213.000
32.10500 211.000
32.15000 224.000
32.19500 201.000
32.24000 213.000
32.28500 201.000
32.33000 216.000
32.37500 197.000
32.42000 205.000
32.46500 205.000
32.51000 223.000
32.55500 220.000
32.60000 239.000
32.64500 200.000
32.69000 217.000
32.73500 186.000
32.78000 218.000
32.82500 221.000
32.87000 212.000
32.91500 187.000
32.96000 189.000
33.00500 208.000
33.05000 182.000
33.09500 185.000
33.14000 188.000
33.18500 189.000
33.23000 193.000
33.27500 204.000
33.32000 199.000
33.36500 208.000
33.41000 197.000
33.45500 186.000
33.50000 201.000
33.54500 184.000
33.59000 208.000
33.63500 177.000
33.68000 197.000
33.72500 206.000
33.77000 195.000
33.81500 180.000
33.86000 188.000
33.90500 179.000
33.95000 196.000
33.99500 168.000
34.04000 188.000
34.08500 187.000
34.13000 179.000
34.17500 177.000
34.22000 163.000
34.26500 160.000
34.31000 170.000
34.35500 175.000
34.40000 170.000
34.44500 176.000
34.49000 191.000
34.53500 179.000
34.58000 175.000
34.62500 191.000
34.67000 195.000
34.71500 189.000
34.76000 184.000
34.80500 171.000
34.85000 177.000
34.89500 180.000
34.94000 174.000
34.98500 162.000
35.03000 171.000
35.07500 169.000
35.12000 171.000
35.16500 179.000
35.21000 174.000
35.25500 172.000
35.30000 167.000
35.34500 172.000
35.39000 172.000
35.43500 182.000
35.48000 156.000
35.52500 182.000
35.57000 169.000
35.61500 163.000
35.66000 157.000
35.70500 167.000
35.75000 169.000
35.79500 155.000
35.84000 151.000
35.88500 147.000
35.93000 149.000
35.97500 159.000
36.02000 165.000
36.06500 147.000
36.11000 169.000
36.15500 154.000
36.20000 147.000
36.24500 138.000
36.29000 146.000
36.33500 161.000
36.38000 136.000
36.42500 153.000
36.47000 146.000
36.51500 150.000
36.56000 142.000
36.60500 162.000
36.65000 179.000
36.69500 147.000
36.74000 171.000
36.78500 165.000
36.83000 159.000
36.87500 143.000
36.92000 147.000
36.96500 138.000
37.01000 160.000
37.05500 135.000
37.10000 161.000
37.14500 154.000
37.19000 130.000
37.23500 148.000
37.28000 124.000
37.32500 140.000
37.37000 141.000
37.41500 134.000
37.46000 133.000
37.50500 142.000
37.55000 133.000
37.59500 122.000
37.64000 157.000
37.68500 141.000
37.73000 159.000
37.77500 139.000
37.82000 135.000
37.86500 137.000
37.91000 130.000
37.95500 150.000
38.00000 151.000
38.04500 151.000
38.09000 124.000
38.13500 126.000
38.18000 127.000
38.22500 137.000
38.27000 137.000
38.31500 134.000
38.36000 136.000
38.40500 142.000
38.45000 127.000
38.49500 145.000
38.54000 150.000
38.58500 155.000
38.63000 154.000
38.67500 152.000
38.72000 138.000
38.76500 137.000
38.81000 136.000
38.85500 129.000
38.90000 139.000
38.94500 145.000
38.99000 144.000
39.03500 155.000
39.08000 137.000
39.12500 160.000
39.17000 154.000
39.21500 140.000
39.26000 144.000
39.30500 138.000
39.35000 144.000
39.39500 128.000
39.44000 138.000
39.48500 139.000
39.53000 135.000
39.57500 137.000
39.62000 141.000
39.66500 151.000
39.71000 146.000
39.75500 134.000
39.80000 141.000
39.84500 142.000
39.89000 150.000
39.93500 141.000
39.98000 143.000
40.02500 154.000
40.07000 136.000
40.11500 131.000
40.16000 145.000
40.20500 144.000
40.25000 139.000
40.29500 154.000
40.34000 139.000
40.38500 143.000
40.43000 145.000
40.47500 148.000
40.52000 153.000
40.56500 160.000
40.61000 145.000
40.65500 142.000
40.70000 138.000
40.74500 132.000
40.79000 168.000
40.83500 127.000
40.88000 125.000
40.92500 153.000
40.97000 158.000
41.01500 164.000
41.06000 141.000
41.10500 137.000
41.15000 140.000
41.19500 140.000
41.24000 144.000
41.28500 152.000
41.33000 140.000
41.37500 163.000
41.42000 142.000
41.46500 142.000
41.51000 127.000
41.55500 149.000
41.60000 143.000
41.64500 143.000
41.69000 131.000
41.73500 120.000
41.78000 130.000
41.82500 143.000
41.87000 126.000
41.91500 136.000
41.96000 124.000
42.00500 152.000
42.05000 122.000
42.09500 153.000
42.14000 142.000
42.18500 130.000
42.23000 124.000
42.27500 139.000
42.32000 127.000
42.36500 114.000
42.41000 120.000
42.45500 134.000
42.50000 120.000
42.54500 129.000
42.59000 150.000
42.63500 123.000
42.68000 140.000
42.72500 129.000
42.77000 140.000
42.81500 141.000
42.86000 130.000
42.90500 133.000
42.95000 136.000
42.99500 124.000
43.04000 134.000
43.08500 158.000
43.13000 133.000
43.17500 124.000
43.22000 135.000
43.26500 124.000
43.31000 145.000
43.35500 118.000
43.40000 126.000
43.44500 139.000
43.49000 137.000
43.53500 148.000
43.58000 120.000
43.62500 126.000
43.67000 132.000
43.71500 122.000
43.76000 141.000
43.80500 125.000
43.85000 129.000
43.89500 125.000
43.94000 120.000
43.98500 119.000
44.03000 128.000
44.07500 126.000
44.12000 122.000
44.16500 117.000
44.21000 128.000
44.25500 129.000
44.30000 133.000
44.34500 110.000
44.39000 121.000
44.43500 132.000
44.48000 114.000
44.52500 114.000
44.57000 136.000
44.61500 122.000
44.66000 129.000
44.70500 123.000
44.75000 121.000
44.79500 118.000
44.84000 128.000
44.88500 117.000
44.93000 122.000
44.97500 127.000
45.02000 129.000
45.06500 110.000
45.11000 129.000
45.15500 116.000
45.20000 136.000
45.24500 118.000
45.29000 138.000
45.33500 127.000
45.38000 131.000
45.42500 123.000
45.47000 116.000
45.51500 139.000
45.56000 129.000
45.60500 120.000
45.65000 126.000
45.69500 123.000
45.74000 118.000
45.78500 118.000
45.83000 133.000
45.87500 108.000
45.92000 130.000
45.96500 114.000
46.01000 120.000
46.05500 134.000
46.10000 112.000
46.14500 150.000
46.19000 143.000
46.23500 125.000
46.28000 123.000
46.32500 124.000
46.37000 137.000
46.41500 133.000
46.46000 133.000
46.50500 112.000
46.55000 157.000
46.59500 130.000
46.64000 120.000
46.68500 131.000
46.73000 127.000
46.77500 113.000
46.82000 122.000
46.86500 120.000
46.91000 115.000
46.95500 130.000
47.00000 125.000
47.04500 120.000
47.09000 124.000
47.13500 131.000
47.18000 125.000
47.22500 114.000
47.27000 113.000
47.31500 111.000
47.36000 105.000
47.40500 124.000
47.45000 108.000
47.49500 119.000
47.54000 98.000
47.58500 117.000
47.63000 106.000
47.67500 122.000
47.72000 112.000
47.76500 101.000
47.81000 110.000
47.85500 100.000
47.90000 135.000
47.94500 117.000
47.99000 134.000
48.03500 114.000
48.08000 111.000
48.12500 113.000
48.17000 115.000
48.21500 107.000
48.26000 109.000
48.30500 115.000
48.35000 139.000
48.39500 119.000
48.44000 124.000
48.48500 124.000
48.53000 98.000
48.57500 128.000
48.62000 114.000
48.66500 110.000
48.71000 116.000
48.75500 108.000
48.80000 120.000
48.84500 108.000
48.89000 116.000
48.93500 106.000
48.98000 118.000
49.02500 116.000
49.07000 116.000
49.11500 113.000
49.16000 115.000
49.20500 114.000
49.25000 126.000
49.29500 100.000
49.34000 134.000
49.38500 100.000
49.43000 116.000
49.47500 99.000
49.52000 101.000
49.56500 105.000
49.61000 125.000
49.65500 105.000
49.70000 121.000
49.74500 108.000
49.79000 105.000
49.83500 119.000
49.88000 106.000
49.92500 110.000
49.97000 98.000
50.01500 99.000
50.06000 115.000
50.10500 109.000
50.15000 115.000
50.19500 114.000
50.24000 106.000
50.28500 111.000
50.33000 121.000
50.37500 119.000
50.42000 100.000
50.46500 97.000
50.51000 126.000
50.55500 115.000
50.60000 99.000
50.64500 105.000
50.69000 118.000
50.73500 102.000
50.78000 123.000
50.82500 105.000
50.87000 107.000
50.91500 112.000
50.96000 100.000
51.00500 102.000
51.05000 100.000
51.09500 111.000
51.14000 103.000
51.18500 114.000
51.23000 118.000
51.27500 106.000
51.32000 105.000
51.36500 103.000
51.41000 116.000
51.45500 113.000
51.50000 101.000
51.54500 112.000
51.59000 111.000
51.63500 109.000
51.68000 110.000
51.72500 101.000
51.77000 110.000
51.81500 120.000
51.86000 113.000
51.90500 109.000
51.95000 111.000
51.99500 101.000
52.04000 121.000
52.08500 99.000
52.13000 108.000
52.17500 106.000
52.22000 113.000
52.26500 91.000
52.31000 111.000
52.35500 118.000
52.40000 105.000
52.44500 110.000
52.49000 107.000
52.53500 127.000
52.58000 107.000
52.62500 113.000
52.67000 113.000
52.71500 126.000
52.76000 102.000
52.80500 102.000
52.85000 105.000
52.89500 106.000
52.94000 95.000
52.98500 99.000
53.03000 119.000
53.07500 101.000
53.12000 130.000
53.16500 119.000
53.21000 117.000
53.25500 116.000
53.30000 119.000
53.34500 110.000
53.39000 105.000
53.43500 99.000
53.48000 125.000
53.52500 112.000
53.57000 107.000
53.61500 104.000
53.66000 111.000
53.70500 97.000
53.75000 107.000
53.79500 117.000
53.84000 118.000
53.88500 98.000
53.93000 99.000
53.97500 116.000
54.02000 90.000
54.06500 115.000
54.11000 120.000
54.15500 123.000
54.20000 125.000
54.24500 106.000
54.29000 104.000
54.33500 113.000
54.38000 107.000
54.42500 103.000
54.47000 109.000
54.51500 114.000
54.56000 116.000
54.60500 113.000
54.65000 111.000
54.69500 90.000
54.74000 98.000
54.78500 111.000
54.83000 93.000
54.87500 104.000
54.92000 104.000
54.96500 96.000
55.01000 110.000
55.05500 99.000
55.10000 98.000
55.14500 91.000
55.19000 116.000
55.23500 108.000
55.28000 105.000
55.32500 135.000
55.37000 98.000
55.41500 103.000
55.46000 100.000
55.50500 107.000
55.55000 93.000
55.59500 121.000
55.64000 100.000
55.68500 105.000
55.73000 117.000
55.77500 98.000
55.82000 98.000
55.86500 88.000
55.91000 102.000
55.95500 100.000
56.00000 110.000
56.04500 97.000
56.09000 122.000
56.13500 112.000
56.18000 95.000
56.22500 111.000
56.27000 103.000
56.31500 101.000
56.36000 105.000
56.40500 113.000
56.45000 93.000
56.49500 102.000
56.54000 102.000
56.58500 97.000
56.63000 114.000
56.67500 96.000
56.72000 107.000
56.76500 111.000
56.81000 96.000
56.85500 104.000
56.90000 116.000
56.94500 94.000
56.99000 111.000
57.03500 125.000
57.08000 100.000
57.12500 101.000
57.17000 111.000
57.21500 96.000
57.26000 113.000
57.30500 106.000
57.35000 100.000
57.39500 93.000
57.44000 107.000
57.48500 103.000
57.53000 94.000
57.57500 100.000
57.62000 87.000
57.66500 95.000
57.71000 96.000
57.75500 117.000
57.80000 102.000
57.84500 110.000
57.89000 93.000
57.93500 93.000
57.98000 90.000
58.02500 109.000
58.07000 112.000
58.11500 98.000
58.16000 106.000
58.20500 98.000
58.25000 112.000
58.29500 95.000
58.34000 87.000
58.38500 112.000
58.43000 89.000
58.47500 105.000
58.52000 103.000
58.56500 96.000
58.61000 100.000
58.65500 111.000
58.70000 105.000
58.74500 97.000
58.79000 86.000
58.83500 98.000
58.88000 90.000
58.92500 95.000
58.97000 100.000
59.01500 112.000
59.06000 102.000
59.10500 105.000
59.15000 95.000
59.19500 109.000
59.24000 108.000
59.28500 106.000
59.33000 117.000
59.37500 89.000
59.42000 93.000
59.46500 86.000
59.51000 100.000
59.55500 100.000
59.60000 93.000
59.64500 101.000
59.69000 98.000
59.73500 116.000
59.78000 101.000
59.82500 90.000
59.87000 94.000
59.91500 94.000
59.96000 96.000
60.00500 106.000
60.05000 95.000
60.09500 95.000
60.14000 93.000
60.18500 98.000
60.23000 101.000
60.27500 94.000
60.32000 98.000
60.36500 94.000
60.41000 90.000
60.45500 113.000
60.50000 93.000
60.54500 96.000
60.59000 108.000
60.63500 109.000
60.68000 101.000
60.72500 99.000
60.77000 99.000
60.81500 88.000
60.86000 98.000
60.90500 104.000
60.95000 96.000
60.99500 103.000
61.04000 94.000
61.08500 88.000
61.13000 95.000
61.17500 89.000
61.22000 128.000
61.26500 88.000
61.31000 91.000
61.35500 95.000
61.40000 90.000
61.44500 96.000
61.49000 99.000
61.53500 98.000
61.58000 103.000
61.62500 104.000
61.67000 96.000
61.71500 104.000
61.76000 91.000
61.80500 88.000
61.85000 86.000
61.89500 92.000
61.94000 86.000
61.98500 96.000