File: ISoD/xrd_data/HSC039_AC3.xy
2.00000 1.000
2.04500 2.000
2.09000 1.000
2.13500 2.000
2.18000 5.000
2.22500 1.000
2.27000 1.000
2.31500 4.000
2.36000 1.000
2.40500 2.000
2.45000 1.000
2.49500 1.000
2.54000 3.000
2.58500 3.000
2.63000 3.000
2.67500 1.000
2.72000 2.000
2.76500 1.000
2.81000 3.000
2.85500 9.000
2.90000 18.000
2.94500 28.000
2.99000 93.000
3.03500 167.000
3.08000 194.000
3.12500 231.000
3.17000 226.000
3.21500 203.000
3.26000 204.000
3.30500 200.000
3.35000 190.000
3.39500 192.000
3.44000 193.000
3.48500 191.000
3.53000 167.000
3.57500 182.000
3.62000 171.000
3.66500 154.000
3.71000 155.000
3.75500 164.000
3.80000 167.000
3.84500 146.000
3.89000 161.000
3.93500 150.000
3.98000 137.000
4.02500 141.000
4.07000 146.000
4.11500 143.000
4.16000 142.000
4.20500 141.000
4.25000 135.000
4.29500 123.000
4.34000 126.000
4.38500 138.000
4.43000 132.000
4.47500 124.000
4.52000 126.000
4.56500 125.000
4.61000 121.000
4.65500 115.000
4.70000 116.000
4.74500 114.000
4.79000 115.000
4.83500 125.000
4.88000 107.000
4.92500 116.000
4.97000 135.000
5.01500 119.000
5.06000 109.000
5.10500 109.000
5.15000 114.000
5.19500 128.000
5.24000 122.000
5.28500 126.000
5.33000 110.000
5.37500 111.000
5.42000 97.000
5.46500 99.000
5.51000 107.000
5.55500 101.000
5.60000 113.000
5.64500 124.000
5.69000 119.000
5.73500 122.000
5.78000 109.000
5.82500 116.000
5.87000 117.000
5.91500 115.000
5.96000 120.000
6.00500 112.000
6.05000 114.000
6.09500 129.000
6.14000 123.000
6.18500 102.000
6.23000 115.000
6.27500 132.000
6.32000 135.000
6.36500 132.000
6.41000 129.000
6.45500 136.000
6.50000 121.000
6.54500 108.000
6.59000 104.000
6.63500 107.000
6.68000 110.000
6.72500 134.000
6.77000 129.000
6.81500 121.000
6.86000 112.000
6.90500 112.000
6.95000 124.000
6.99500 130.000
7.04000 147.000
7.08500 177.000
7.13000 212.000
7.17500 315.000
7.22000 432.000
7.26500 659.000
7.31000 1049.000
7.35500 250.000
7.40000 133.000
7.44500 110.000
7.49000 126.000
7.53500 110.000
7.58000 122.000
7.62500 119.000
7.67000 101.000
7.71500 117.000
7.76000 111.000
7.80500 106.000
7.85000 105.000
7.89500 133.000
7.94000 113.000
7.98500 101.000
8.03000 105.000
8.07500 101.000
8.12000 117.000
8.16500 119.000
8.21000 115.000
8.25500 116.000
8.30000 109.000
8.34500 98.000
8.39000 115.000
8.43500 117.000
8.48000 116.000
8.52500 109.000
8.57000 116.000
8.61500 120.000
8.66000 138.000
8.70500 120.000
8.75000 121.000
8.79500 102.000
8.84000 117.000
8.88500 102.000
8.93000 113.000
8.97500 113.000
9.02000 106.000
9.06500 101.000
9.11000 120.000
9.15500 105.000
9.20000 78.000
9.24500 112.000
9.29000 104.000
9.33500 113.000
9.38000 122.000
9.42500 98.000
9.47000 107.000
9.51500 113.000
9.56000 122.000
9.60500 116.000
9.65000 114.000
9.69500 99.000
9.74000 102.000
9.78500 106.000
9.83000 106.000
9.87500 100.000
9.92000 122.000
9.96500 111.000
10.01000 132.000
10.05500 125.000
10.10000 181.000
10.14500 263.000
10.19000 343.000
10.23500 556.000
10.28000 1102.000
10.32500 2161.000
10.37000 832.000
10.41500 178.000
10.46000 129.000
10.50500 131.000
10.55000 112.000
10.59500 114.000
10.64000 109.000
10.68500 126.000
10.73000 118.000
10.77500 93.000
10.82000 98.000
10.86500 114.000
10.91000 114.000
10.95500 105.000
11.00000 130.000
11.04500 122.000
11.09000 110.000
11.13500 108.000
11.18000 116.000
11.22500 111.000
11.27000 115.000
11.31500 102.000
11.36000 105.000
11.40500 94.000
11.45000 103.000
11.49500 131.000
11.54000 122.000
11.58500 125.000
11.63000 85.000
11.67500 102.000
11.72000 116.000
11.76500 105.000
11.81000 110.000
11.85500 133.000
11.90000 127.000
11.94500 121.000
11.99000 129.000
12.03500 148.000
12.08000 138.000
12.12500 157.000
12.17000 149.000
12.21500 130.000
12.26000 132.000
12.30500 115.000
12.35000 117.000
12.39500 120.000
12.44000 159.000
12.48500 204.000
12.53000 299.000
12.57500 537.000
12.62000 1070.000
12.66500 1796.000
12.71000 438.000
12.75500 161.000
12.80000 137.000
12.84500 126.000
12.89000 114.000
12.93500 116.000
12.98000 114.000
13.02500 111.000
13.07000 113.000
13.11500 108.000
13.16000 107.000
13.20500 109.000
13.25000 105.000
13.29500 121.000
13.34000 107.000
13.38500 103.000
13.43000 104.000
13.47500 124.000
13.52000 94.000
13.56500 107.000
13.61000 118.000
13.65500 129.000
13.70000 104.000
13.74500 92.000
13.79000 106.000
13.83500 112.000
13.88000 101.000
13.92500 100.000
13.97000 114.000
14.01500 115.000
14.06000 107.000
14.10500 104.000
14.15000 90.000
14.19500 106.000
14.24000 109.000
14.28500 134.000
14.33000 103.000
14.37500 111.000
14.42000 112.000
14.46500 130.000
14.51000 121.000
14.55500 157.000
14.60000 220.000
14.64500 197.000
14.69000 113.000
14.73500 124.000
14.78000 123.000
14.82500 109.000
14.87000 106.000
14.91500 114.000
14.96000 114.000
15.00500 110.000
15.05000 116.000
15.09500 132.000
15.14000 116.000
15.18500 117.000
15.23000 122.000
15.27500 103.000
15.32000 108.000
15.36500 107.000
15.41000 121.000
15.45500 121.000
15.50000 106.000
15.54500 99.000
15.59000 131.000
15.63500 117.000
15.68000 97.000
15.72500 122.000
15.77000 128.000
15.81500 115.000
15.86000 110.000
15.90500 138.000
15.95000 112.000
15.99500 118.000
16.04000 127.000
16.08500 108.000
16.13000 120.000
16.17500 125.000
16.22000 134.000
16.26500 193.000
16.31000 296.000
16.35500 487.000
16.40000 295.000
16.44500 129.000
16.49000 121.000
16.53500 120.000
16.58000 125.000
16.62500 119.000
16.67000 121.000
16.71500 119.000
16.76000 120.000
16.80500 119.000
16.85000 100.000
16.89500 131.000
16.94000 121.000
16.98500 110.000
17.03000 102.000
17.07500 117.000
17.12000 110.000
17.16500 109.000
17.21000 124.000
17.25500 132.000
17.30000 121.000
17.34500 121.000
17.39000 126.000
17.43500 129.000
17.48000 121.000
17.52500 117.000
17.57000 117.000
17.61500 113.000
17.66000 132.000
17.70500 115.000
17.75000 127.000
17.79500 113.000
17.84000 138.000
17.88500 147.000
17.93000 150.000
17.97500 122.000
18.02000 118.000
18.06500 124.000
18.11000 137.000
18.15500 121.000
18.20000 137.000
18.24500 131.000
18.29000 116.000
18.33500 140.000
18.38000 128.000
18.42500 127.000
18.47000 127.000
18.51500 127.000
18.56000 122.000
18.60500 119.000
18.65000 129.000
18.69500 134.000
18.74000 149.000
18.78500 148.000
18.83000 147.000
18.87500 127.000
18.92000 137.000
18.96500 142.000
19.01000 160.000
19.05500 152.000
19.10000 149.000
19.14500 121.000
19.19000 131.000
19.23500 123.000
19.28000 135.000
19.32500 138.000
19.37000 131.000
19.41500 130.000
19.46000 134.000
19.50500 131.000
19.55000 128.000
19.59500 153.000
19.64000 130.000
19.68500 152.000
19.73000 152.000
19.77500 138.000
19.82000 141.000
19.86500 149.000
19.91000 146.000
19.95500 124.000
20.00000 140.000
20.04500 141.000
20.09000 137.000
20.13500 141.000
20.18000 145.000
20.22500 163.000
20.27000 154.000
20.31500 137.000
20.36000 133.000
20.40500 145.000
20.45000 148.000
20.49500 134.000
20.54000 145.000
20.58500 152.000
20.63000 163.000
20.67500 178.000
20.72000 204.000
20.76500 218.000
20.81000 179.000
20.85500 207.000
20.90000 184.000
20.94500 170.000
20.99000 170.000
21.03500 155.000
21.08000 159.000
21.12500 174.000
21.17000 166.000
21.21500 154.000
21.26000 162.000
21.30500 158.000
21.35000 168.000
21.39500 153.000
21.44000 143.000
21.48500 151.000
21.53000 169.000
21.57500 177.000
21.62000 243.000
21.66500 353.000
21.71000 309.000
21.75500 248.000
21.80000 211.000
21.84500 225.000
21.89000 300.000
21.93500 507.000
21.98000 1087.000
22.02500 1235.000
22.07000 412.000
22.11500 198.000
22.16000 189.000
22.20500 173.000
22.25000 174.000
22.29500 158.000
22.34000 163.000
22.38500 167.000
22.43000 150.000
22.47500 154.000
22.52000 155.000
22.56500 153.000
22.61000 149.000
22.65500 156.000
22.70000 156.000
22.74500 157.000
22.79000 149.000
22.83500 143.000
22.88000 156.000
22.92500 143.000
22.97000 154.000
23.01500 163.000
23.06000 177.000
23.10500 203.000
23.15000 251.000
23.19500 403.000
23.24000 337.000
23.28500 180.000
23.33000 157.000
23.37500 148.000
23.42000 159.000
23.46500 169.000
23.51000 177.000
23.55500 166.000
23.60000 154.000
23.64500 150.000
23.69000 158.000
23.73500 138.000
23.78000 146.000
23.82500 166.000
23.87000 178.000
23.91500 177.000
23.96000 186.000
24.00500 196.000
24.05000 235.000
24.09500 225.000
24.14000 214.000
24.18500 225.000
24.23000 324.000
24.27500 594.000
24.32000 1422.000
24.36500 2340.000
24.41000 1053.000
24.45500 323.000
24.50000 199.000
24.54500 182.000
24.59000 172.000
24.63500 179.000
24.68000 167.000
24.72500 176.000
24.77000 159.000
24.81500 166.000
24.86000 172.000
24.90500 147.000
24.95000 153.000
24.99500 157.000
25.04000 176.000
25.08500 160.000
25.13000 163.000
25.17500 157.000
25.22000 165.000
25.26500 163.000
25.31000 159.000
25.35500 156.000
25.40000 171.000
25.44500 162.000
25.49000 159.000
25.53500 151.000
25.58000 168.000
25.62500 155.000
25.67000 153.000
25.71500 166.000
25.76000 165.000
25.80500 152.000
25.85000 157.000
25.89500 159.000
25.94000 158.000
25.98500 161.000
26.03000 171.000
26.07500 193.000
26.12000 160.000
26.16500 222.000
26.21000 236.000
26.25500 260.000
26.30000 299.000
26.34500 241.000
26.39000 324.000
26.43500 463.000
26.48000 968.000
26.52500 1597.000
26.57000 866.000
26.61500 495.000
26.66000 428.000
26.70500 269.000
26.75000 222.000
26.79500 218.000
26.84000 193.000
26.88500 186.000
26.93000 168.000
26.97500 201.000
27.02000 168.000
27.06500 194.000
27.11000 178.000
27.15500 204.000
27.20000 183.000
27.24500 179.000
27.29000 180.000
27.33500 193.000
27.38000 258.000
27.42500 357.000
27.47000 757.000
27.51500 1709.000
27.56000 1877.000
27.60500 630.000
27.65000 281.000
27.69500 194.000
27.74000 183.000
27.78500 203.000
27.83000 173.000
27.87500 153.000
27.92000 161.000
27.96500 159.000
28.01000 160.000
28.05500 157.000
28.10000 160.000
28.14500 173.000
28.19000 168.000
28.23500 185.000
28.28000 197.000
28.32500 181.000
28.37000 175.000
28.41500 181.000
28.46000 173.000
28.50500 169.000
28.55000 166.000
28.59500 170.000
28.64000 159.000
28.68500 159.000
28.73000 159.000
28.77500 183.000
28.82000 196.000
28.86500 165.000
28.91000 189.000
28.95500 163.000
29.00000 175.000
29.04500 192.000
29.09000 202.000
29.13500 199.000
29.18000 197.000
29.22500 222.000
29.27000 204.000
29.31500 195.000
29.36000 233.000
29.40500 271.000
29.45000 376.000
29.49500 427.000
29.54000 233.000
29.58500 192.000
29.63000 195.000
29.67500 193.000
29.72000 157.000
29.76500 195.000
29.81000 158.000
29.85500 177.000
29.90000 170.000
29.94500 168.000
29.99000 166.000
30.03500 176.000
30.08000 175.000
30.12500 208.000
30.17000 250.000
30.21500 248.000
30.26000 336.000
30.30500 461.000
30.35000 935.000
30.39500 1991.000
30.44000 1645.000
30.48500 509.000
30.53000 232.000
30.57500 188.000
30.62000 154.000
30.66500 165.000
30.71000 158.000
30.75500 153.000
30.80000 150.000
30.84500 147.000
30.89000 148.000
30.93500 154.000
30.98000 155.000
31.02500 143.000
31.07000 146.000
31.11500 139.000
31.16000 159.000
31.20500 171.000
31.25000 242.000
31.29500 382.000
31.34000 357.000
31.38500 206.000
31.43000 162.000
31.47500 167.000
31.52000 141.000
31.56500 152.000
31.61000 145.000
31.65500 155.000
31.70000 148.000
31.74500 174.000
31.79000 181.000
31.83500 214.000
31.88000 258.000
31.92500 378.000
31.97000 439.000
32.01500 346.000
32.06000 241.000
32.10500 183.000
32.15000 184.000
32.19500 188.000
32.24000 171.000
32.28500 168.000
32.33000 175.000
32.37500 158.000
32.42000 147.000
32.46500 160.000
32.51000 154.000
32.55500 148.000
32.60000 136.000
32.64500 138.000
32.69000 145.000
32.73500 137.000
32.78000 129.000
32.82500 150.000
32.87000 157.000
32.91500 186.000
32.96000 234.000
33.00500 397.000
33.05000 598.000
33.09500 437.000
33.14000 213.000
33.18500 145.000
33.23000 145.000
33.27500 119.000
33.32000 122.000
33.36500 131.000
33.41000 143.000
33.45500 123.000
33.50000 145.000
33.54500 142.000
33.59000 147.000
33.63500 196.000
33.68000 175.000
33.72500 189.000
33.77000 195.000
33.81500 249.000
33.86000 462.000
33.90500 641.000
33.95000 346.000
33.99500 213.000
34.04000 163.000
34.08500 162.000
34.13000 137.000
34.17500 143.000
34.22000 145.000
34.26500 138.000
34.31000 149.000
34.35500 131.000
34.40000 143.000
34.44500 130.000
34.49000 153.000
34.53500 167.000
34.58000 180.000
34.62500 285.000
34.67000 490.000
34.71500 803.000
34.76000 535.000
34.80500 243.000
34.85000 174.000
34.89500 138.000
34.94000 131.000
34.98500 136.000
35.03000 127.000
35.07500 143.000
35.12000 132.000
35.16500 146.000
35.21000 145.000
35.25500 144.000
35.30000 132.000
35.34500 149.000
35.39000 124.000
35.43500 130.000
35.48000 106.000
35.52500 143.000
35.57000 117.000
35.61500 108.000
35.66000 110.000
35.70500 120.000
35.75000 110.000
35.79500 131.000
35.84000 136.000
35.88500 116.000
35.93000 139.000
35.97500 131.000
36.02000 127.000
36.06500 114.000
36.11000 144.000
36.15500 124.000
36.20000 174.000
36.24500 243.000
36.29000 408.000
36.33500 366.000
36.38000 211.000
36.42500 160.000
36.47000 137.000
36.51500 138.000
36.56000 142.000
36.60500 127.000
36.65000 158.000
36.69500 135.000
36.74000 153.000
36.78500 152.000
36.83000 168.000
36.87500 197.000
36.92000 183.000
36.96500 144.000
37.01000 150.000
37.05500 144.000
37.10000 137.000
37.14500 125.000
37.19000 112.000
37.23500 108.000
37.28000 106.000
37.32500 127.000
37.37000 108.000
37.41500 108.000
37.46000 116.000
37.50500 107.000
37.55000 108.000
37.59500 108.000
37.64000 121.000
37.68500 104.000
37.73000 101.000
37.77500 87.000
37.82000 103.000
37.86500 110.000
37.91000 92.000
37.95500 110.000
38.00000 103.000
38.04500 114.000
38.09000 121.000
38.13500 103.000
38.18000 97.000
38.22500 118.000
38.27000 117.000
38.31500 127.000
38.36000 163.000
38.40500 166.000
38.45000 155.000
38.49500 145.000
38.54000 158.000
38.58500 196.000
38.63000 170.000
38.67500 126.000
38.72000 104.000
38.76500 112.000
38.81000 103.000
38.85500 94.000
38.90000 89.000
38.94500 103.000
38.99000 92.000
39.03500 96.000
39.08000 97.000
39.12500 95.000
39.17000 119.000
39.21500 92.000
39.26000 91.000
39.30500 92.000
39.35000 102.000
39.39500 93.000
39.44000 124.000
39.48500 116.000
39.53000 104.000
39.57500 93.000
39.62000 94.000
39.66500 133.000
39.71000 133.000
39.75500 215.000
39.80000 272.000
39.84500 317.000
39.89000 334.000
39.93500 227.000
39.98000 196.000
40.02500 187.000
40.07000 160.000
40.11500 120.000
40.16000 128.000
40.20500 114.000
40.25000 108.000
40.29500 104.000
40.34000 104.000
40.38500 98.000
40.43000 100.000
40.47500 112.000
40.52000 101.000
40.56500 86.000
40.61000 83.000
40.65500 108.000
40.70000 107.000
40.74500 126.000
40.79000 143.000
40.83500 122.000
40.88000 103.000
40.92500 105.000
40.97000 94.000
41.01500 92.000
41.06000 113.000
41.10500 96.000
41.15000 87.000
41.19500 107.000
41.24000 93.000
41.28500 106.000
41.33000 97.000
41.37500 111.000
41.42000 84.000
41.46500 95.000
41.51000 87.000
41.55500 88.000
41.60000 90.000
41.64500 89.000
41.69000 94.000
41.73500 108.000
41.78000 86.000
41.82500 108.000
41.87000 93.000
41.91500 104.000
41.96000 96.000
42.00500 108.000
42.05000 139.000
42.09500 167.000
42.14000 262.000
42.18500 327.000
42.23000 187.000
42.27500 132.000
42.32000 105.000
42.36500 100.000
42.41000 104.000
42.45500 106.000
42.50000 116.000
42.54500 91.000
42.59000 108.000
42.63500 127.000
42.68000 134.000
42.72500 127.000
42.77000 108.000
42.81500 127.000
42.86000 113.000
42.90500 101.000
42.95000 101.000
42.99500 100.000
43.04000 95.000
43.08500 89.000
43.13000 106.000
43.17500 83.000
43.22000 93.000
43.26500 98.000
43.31000 96.000
43.35500 93.000
43.40000 104.000
43.44500 121.000
43.49000 157.000
43.53500 156.000
43.58000 149.000
43.62500 127.000
43.67000 90.000
43.71500 91.000
43.76000 103.000
43.80500 96.000
43.85000 116.000
43.89500 137.000
43.94000 143.000
43.98500 150.000
44.03000 161.000
44.07500 163.000
44.12000 138.000
44.16500 169.000
44.21000 149.000
44.25500 116.000
44.30000 109.000
44.34500 107.000
44.39000 104.000
44.43500 101.000
44.48000 99.000
44.52500 91.000
44.57000 103.000
44.61500 100.000
44.66000 114.000
44.70500 114.000
44.75000 149.000
44.79500 225.000
44.84000 381.000
44.88500 432.000
44.93000 295.000
44.97500 162.000
45.02000 133.000
45.06500 105.000
45.11000 107.000
45.15500 114.000
45.20000 104.000
45.24500 119.000
45.29000 123.000
45.33500 108.000
45.38000 112.000
45.42500 113.000
45.47000 110.000
45.51500 134.000
45.56000 111.000
45.60500 92.000
45.65000 106.000
45.69500 98.000
45.74000 84.000
45.78500 106.000
45.83000 104.000
45.87500 95.000
45.92000 94.000
45.96500 88.000
46.01000 86.000
46.05500 85.000
46.10000 105.000
46.14500 119.000
46.19000 113.000
46.23500 93.000
46.28000 99.000
46.32500 91.000
46.37000 82.000
46.41500 99.000
46.46000 87.000
46.50500 85.000
46.55000 90.000
46.59500 96.000
46.64000 103.000
46.68500 89.000
46.73000 89.000
46.77500 99.000
46.82000 84.000
46.86500 90.000
46.91000 85.000
46.95500 79.000
47.00000 92.000
47.04500 81.000
47.09000 94.000
47.13500 81.000
47.18000 93.000
47.22500 91.000
47.27000 89.000
47.31500 91.000
47.36000 81.000
47.40500 84.000
47.45000 93.000
47.49500 99.000
47.54000 87.000
47.58500 80.000
47.63000 88.000
47.67500 88.000
47.72000 100.000
47.76500 92.000
47.81000 96.000
47.85500 126.000
47.90000 139.000
47.94500 136.000
47.99000 182.000
48.03500 293.000
48.08000 326.000
48.12500 197.000
48.17000 120.000
48.21500 101.000
48.26000 105.000
48.30500 85.000
48.35000 89.000
48.39500 108.000
48.44000 95.000
48.48500 85.000
48.53000 97.000
48.57500 102.000
48.62000 156.000
48.66500 213.000
48.71000 219.000
48.75500 139.000
48.80000 112.000
48.84500 85.000
48.89000 97.000
48.93500 110.000
48.98000 99.000
49.02500 119.000
49.07000 111.000
49.11500 127.000
49.16000 148.000
49.20500 133.000
49.25000 138.000
49.29500 172.000
49.34000 136.000
49.38500 112.000
49.43000 101.000
49.47500 100.000
49.52000 81.000
49.56500 84.000
49.61000 93.000
49.65500 90.000
49.70000 75.000
49.74500 75.000
49.79000 96.000
49.83500 99.000
49.88000 104.000
49.92500 105.000
49.97000 83.000
50.01500 80.000
50.06000 99.000
50.10500 102.000
50.15000 124.000
50.19500 112.000
50.24000 108.000
50.28500 118.000
50.33000 133.000
50.37500 130.000
50.42000 120.000
50.46500 98.000
50.51000 108.000
50.55500 122.000
50.60000 111.000
50.64500 104.000
50.69000 87.000
50.73500 81.000
50.78000 84.000
50.82500 100.000
50.87000 84.000
50.91500 97.000
50.96000 95.000
51.00500 87.000
51.05000 106.000
51.09500 94.000
51.14000 89.000
51.18500 90.000
51.23000 97.000
51.27500 103.000
51.32000 98.000
51.36500 91.000
51.41000 77.000
51.45500 91.000
51.50000 101.000
51.54500 91.000
51.59000 102.000
51.63500 94.000
51.68000 81.000
51.72500 97.000
51.77000 88.000
51.81500 82.000
51.86000 78.000
51.90500 98.000
51.95000 76.000
51.99500 87.000
52.04000 85.000
52.08500 85.000
52.13000 94.000
52.17500 102.000
52.22000 99.000
52.26500 106.000
52.31000 111.000
52.35500 90.000
52.40000 82.000
52.44500 87.000
52.49000 83.000
52.53500 73.000
52.58000 96.000
52.62500 98.000
52.67000 111.000
52.71500 116.000
52.76000 107.000
52.80500 151.000
52.85000 214.000
52.89500 193.000
52.94000 172.000
52.98500 109.000
53.03000 106.000
53.07500 99.000
53.12000 90.000
53.16500 96.000
53.21000 112.000
53.25500 120.000
53.30000 129.000
53.34500 162.000
53.39000 281.000
53.43500 432.000
53.48000 416.000
53.52500 268.000
53.57000 178.000
53.61500 131.000
53.66000 100.000
53.70500 103.000
53.75000 102.000
53.79500 120.000
53.84000 103.000
53.88500 97.000
53.93000 95.000
53.97500 102.000
54.02000 119.000
54.06500 111.000
54.11000 99.000
54.15500 82.000
54.20000 93.000
54.24500 84.000
54.29000 91.000
54.33500 96.000
54.38000 102.000
54.42500 91.000
54.47000 85.000
54.51500 93.000
54.56000 109.000
54.60500 107.000
54.65000 104.000
54.69500 86.000
54.74000 96.000
54.78500 110.000
54.83000 87.000
54.87500 120.000
54.92000 117.000
54.96500 128.000
55.01000 133.000
55.05500 150.000
55.10000 242.000
55.14500 296.000
55.19000 266.000
55.23500 182.000
55.28000 112.000
55.32500 110.000
55.37000 99.000
55.41500 89.000
55.46000 90.000
55.50500 88.000
55.55000 79.000
55.59500 99.000
55.64000 112.000
55.68500 101.000
55.73000 132.000
55.77500 131.000
55.82000 105.000
55.86500 99.000
55.91000 84.000
55.95500 96.000
56.00000 74.000
56.04500 90.000
56.09000 104.000
56.13500 106.000
56.18000 107.000
56.22500 85.000
56.27000 85.000
56.31500 111.000
56.36000 85.000
56.40500 100.000
56.45000 87.000
56.49500 91.000
56.54000 99.000
56.58500 91.000
56.63000 87.000
56.67500 90.000
56.72000 66.000
56.76500 91.000
56.81000 84.000
56.85500 102.000
56.90000 97.000
56.94500 85.000
56.99000 83.000
57.03500 100.000
57.08000 102.000
57.12500 112.000
57.17000 107.000
57.21500 136.000
57.26000 122.000
57.30500 143.000
57.35000 201.000
57.39500 231.000
57.44000 197.000
57.48500 141.000
57.53000 102.000
57.57500 88.000
57.62000 84.000
57.66500 100.000
57.71000 83.000
57.75500 74.000
57.80000 98.000
57.84500 102.000
57.89000 107.000
57.93500 85.000
57.98000 104.000
58.02500 111.000
58.07000 95.000
58.11500 81.000
58.16000 89.000
58.20500 86.000
58.25000 86.000
58.29500 99.000
58.34000 99.000
58.38500 112.000
58.43000 175.000
58.47500 207.000
58.52000 179.000
58.56500 125.000
58.61000 123.000
58.65500 95.000
58.70000 91.000
58.74500 86.000
58.79000 82.000
58.83500 82.000
58.88000 94.000
58.92500 75.000
58.97000 99.000
59.01500 90.000
59.06000 92.000
59.10500 85.000
59.15000 92.000
59.19500 84.000
59.24000 105.000
59.28500 96.000
59.33000 105.000
59.37500 108.000
59.42000 138.000
59.46500 150.000
59.51000 184.000
59.55500 215.000
59.60000 206.000
59.64500 150.000
59.69000 90.000
59.73500 104.000
59.78000 95.000
59.82500 88.000
59.87000 99.000
59.91500 94.000
59.96000 98.000
60.00500 110.000
60.05000 122.000
60.09500 126.000
60.14000 125.000
60.18500 113.000
60.23000 87.000
60.27500 87.000
60.32000 83.000
60.36500 101.000
60.41000 93.000
60.45500 108.000
60.50000 100.000
60.54500 91.000
60.59000 88.000
60.63500 102.000
60.68000 72.000
60.72500 87.000
60.77000 87.000
60.81500 87.000
60.86000 97.000
60.90500 78.000
60.95000 86.000
60.99500 116.000
61.04000 116.000
61.08500 109.000
61.13000 141.000
61.17500 168.000
61.22000 151.000
61.26500 112.000
61.31000 102.000
61.35500 105.000
61.40000 88.000
61.44500 97.000
61.49000 111.000
61.53500 105.000
61.58000 100.000
61.62500 129.000
61.67000 155.000
61.71500 125.000
61.76000 106.000
61.80500 93.000
61.85000 101.000
61.89500 95.000
61.94000 75.000
61.98500 80.000