File: ISoD/xrd_data/HSC094_gew_range_2.xy
2.00000 2.000
2.04500 2.000
2.09000 3.000
2.13500 4.000
2.18000 5.000
2.22500 2.000
2.27000 1.000
2.31500 0.000
2.36000 4.000
2.40500 2.000
2.45000 6.000
2.49500 3.000
2.54000 4.000
2.58500 3.000
2.63000 1.000
2.67500 3.000
2.72000 4.000
2.76500 3.000
2.81000 4.000
2.85500 3.000
2.90000 4.000
2.94500 3.000
2.99000 5.000
3.03500 18.000
3.08000 38.000
3.12500 132.000
3.17000 223.000
3.21500 223.000
3.26000 229.000
3.30500 236.000
3.35000 242.000
3.39500 226.000
3.44000 211.000
3.48500 238.000
3.53000 207.000
3.57500 198.000
3.62000 206.000
3.66500 203.000
3.71000 166.000
3.75500 195.000
3.80000 198.000
3.84500 202.000
3.89000 190.000
3.93500 207.000
3.98000 190.000
4.02500 188.000
4.07000 201.000
4.11500 171.000
4.16000 178.000
4.20500 172.000
4.25000 183.000
4.29500 184.000
4.34000 162.000
4.38500 179.000
4.43000 164.000
4.47500 183.000
4.52000 174.000
4.56500 205.000
4.61000 183.000
4.65500 190.000
4.70000 176.000
4.74500 180.000
4.79000 185.000
4.83500 185.000
4.88000 166.000
4.92500 180.000
4.97000 175.000
5.01500 181.000
5.06000 170.000
5.10500 170.000
5.15000 162.000
5.19500 199.000
5.24000 197.000
5.28500 188.000
5.33000 166.000
5.37500 188.000
5.42000 184.000
5.46500 161.000
5.51000 194.000
5.55500 166.000
5.60000 186.000
5.64500 185.000
5.69000 201.000
5.73500 179.000
5.78000 192.000
5.82500 174.000
5.87000 169.000
5.91500 193.000
5.96000 179.000
6.00500 171.000
6.05000 170.000
6.09500 193.000
6.14000 184.000
6.18500 172.000
6.23000 178.000
6.27500 180.000
6.32000 201.000
6.36500 172.000
6.41000 194.000
6.45500 187.000
6.50000 183.000
6.54500 182.000
6.59000 204.000
6.63500 174.000
6.68000 186.000
6.72500 193.000
6.77000 205.000
6.81500 198.000
6.86000 183.000
6.90500 211.000
6.95000 195.000
6.99500 186.000
7.04000 200.000
7.08500 187.000
7.13000 200.000
7.17500 186.000
7.22000 196.000
7.26500 180.000
7.31000 192.000
7.35500 187.000
7.40000 200.000
7.44500 191.000
7.49000 229.000
7.53500 198.000
7.58000 207.000
7.62500 200.000
7.67000 215.000
7.71500 206.000
7.76000 208.000
7.80500 233.000
7.85000 193.000
7.89500 207.000
7.94000 188.000
7.98500 197.000
8.03000 199.000
8.07500 203.000
8.12000 217.000
8.16500 186.000
8.21000 208.000
8.25500 209.000
8.30000 219.000
8.34500 217.000
8.39000 213.000
8.43500 227.000
8.48000 241.000
8.52500 238.000
8.57000 263.000
8.61500 275.000
8.66000 307.000
8.70500 332.000
8.75000 392.000
8.79500 513.000
8.84000 645.000
8.88500 961.000
8.93000 1448.000
8.97500 2585.000
9.02000 3250.000
9.06500 979.000
9.11000 439.000
9.15500 336.000
9.20000 291.000
9.24500 243.000
9.29000 235.000
9.33500 224.000
9.38000 235.000
9.42500 236.000
9.47000 227.000
9.51500 216.000
9.56000 228.000
9.60500 207.000
9.65000 222.000
9.69500 203.000
9.74000 230.000
9.78500 213.000
9.83000 218.000
9.87500 215.000
9.92000 229.000
9.96500 216.000
10.01000 207.000
10.05500 235.000
10.10000 211.000
10.14500 250.000
10.19000 252.000
10.23500 273.000
10.28000 301.000
10.32500 372.000
10.37000 511.000
10.41500 703.000
10.46000 1149.000
10.50500 1818.000
10.55000 2942.000
10.59500 1492.000
10.64000 585.000
10.68500 372.000
10.73000 326.000
10.77500 329.000
10.82000 340.000
10.86500 257.000
10.91000 225.000
10.95500 266.000
11.00000 243.000
11.04500 225.000
11.09000 250.000
11.13500 232.000
11.18000 249.000
11.22500 277.000
11.27000 270.000
11.31500 279.000
11.36000 327.000
11.40500 416.000
11.45000 461.000
11.49500 675.000
11.54000 1038.000
11.58500 1655.000
11.63000 2734.000
11.67500 4895.000
11.72000 3081.000
11.76500 1277.000
11.81000 741.000
11.85500 555.000
11.90000 472.000
11.94500 378.000
11.99000 363.000
12.03500 294.000
12.08000 284.000
12.12500 264.000
12.17000 233.000
12.21500 247.000
12.26000 248.000
12.30500 250.000
12.35000 288.000
12.39500 256.000
12.44000 229.000
12.48500 250.000
12.53000 232.000
12.57500 208.000
12.62000 235.000
12.66500 192.000
12.71000 248.000
12.75500 264.000
12.80000 306.000
12.84500 409.000
12.89000 564.000
12.93500 963.000
12.98000 1945.000
13.02500 2979.000
13.07000 852.000
13.11500 441.000
13.16000 331.000
13.20500 352.000
13.25000 418.000
13.29500 586.000
13.34000 1027.000
13.38500 1837.000
13.43000 897.000
13.47500 287.000
13.52000 222.000
13.56500 213.000
13.61000 203.000
13.65500 217.000
13.70000 226.000
13.74500 215.000
13.79000 195.000
13.83500 225.000
13.88000 232.000
13.92500 272.000
13.97000 326.000
14.01500 286.000
14.06000 224.000
14.10500 200.000
14.15000 204.000
14.19500 216.000
14.24000 230.000
14.28500 236.000
14.33000 217.000
14.37500 214.000
14.42000 225.000
14.46500 222.000
14.51000 229.000
14.55500 225.000
14.60000 228.000
14.64500 227.000
14.69000 224.000
14.73500 287.000
14.78000 328.000
14.82500 445.000
14.87000 689.000
14.91500 1344.000
14.96000 2834.000
15.00500 3906.000
15.05000 888.000
15.09500 356.000
15.14000 283.000
15.18500 243.000
15.23000 231.000
15.27500 235.000
15.32000 227.000
15.36500 228.000
15.41000 257.000
15.45500 267.000
15.50000 236.000
15.54500 231.000
15.59000 242.000
15.63500 287.000
15.68000 300.000
15.72500 337.000
15.77000 262.000
15.81500 224.000
15.86000 261.000
15.90500 274.000
15.95000 351.000
15.99500 490.000
16.04000 694.000
16.08500 911.000
16.13000 586.000
16.17500 408.000
16.22000 310.000
16.26500 283.000
16.31000 252.000
16.35500 235.000
16.40000 265.000
16.44500 276.000
16.49000 340.000
16.53500 453.000
16.58000 649.000
16.62500 1216.000
16.67000 1857.000
16.71500 996.000
16.76000 472.000
16.80500 323.000
16.85000 278.000
16.89500 210.000
16.94000 246.000
16.98500 225.000
17.03000 234.000
17.07500 235.000
17.12000 212.000
17.16500 226.000
17.21000 236.000
17.25500 229.000
17.30000 209.000
17.34500 202.000
17.39000 211.000
17.43500 233.000
17.48000 208.000
17.52500 214.000
17.57000 210.000
17.61500 226.000
17.66000 224.000
17.70500 230.000
17.75000 248.000
17.79500 247.000
17.84000 271.000
17.88500 327.000
17.93000 413.000
17.97500 645.000
18.02000 1079.000
18.06500 1745.000
18.11000 1770.000
18.15500 982.000
18.20000 511.000
18.24500 380.000
18.29000 300.000
18.33500 286.000
18.38000 270.000
18.42500 275.000
18.47000 278.000
18.51500 317.000
18.56000 266.000
18.60500 243.000
18.65000 241.000
18.69500 248.000
18.74000 241.000
18.78500 208.000
18.83000 228.000
18.87500 286.000
18.92000 231.000
18.96500 218.000
19.01000 222.000
19.05500 258.000
19.10000 235.000
19.14500 231.000
19.19000 209.000
19.23500 240.000
19.28000 227.000
19.32500 219.000
19.37000 237.000
19.41500 251.000
19.46000 361.000
19.50500 553.000
19.55000 1054.000
19.59500 2526.000
19.64000 2009.000
19.68500 497.000
19.73000 312.000
19.77500 240.000
19.82000 232.000
19.86500 224.000
19.91000 227.000
19.95500 247.000
20.00000 215.000
20.04500 252.000
20.09000 242.000
20.13500 258.000
20.18000 280.000
20.22500 353.000
20.27000 531.000
20.31500 913.000
20.36000 408.000
20.40500 268.000
20.45000 280.000
20.49500 263.000
20.54000 254.000
20.58500 296.000
20.63000 319.000
20.67500 403.000
20.72000 364.000
20.76500 275.000
20.81000 294.000
20.85500 299.000
20.90000 302.000
20.94500 298.000
20.99000 397.000
21.03500 507.000
21.08000 724.000
21.12500 916.000
21.17000 861.000
21.21500 940.000
21.26000 705.000
21.30500 585.000
21.35000 631.000
21.39500 744.000
21.44000 1051.000
21.48500 1754.000
21.53000 3139.000
21.57500 5040.000
21.62000 5229.000
21.66500 2326.000
21.71000 1151.000
21.75500 784.000
21.80000 630.000
21.84500 516.000
21.89000 419.000
21.93500 417.000
21.98000 389.000
22.02500 389.000
22.07000 371.000
22.11500 346.000
22.16000 324.000
22.20500 307.000
22.25000 323.000
22.29500 393.000
22.34000 411.000
22.38500 464.000
22.43000 656.000
22.47500 872.000
22.52000 577.000
22.56500 378.000
22.61000 329.000
22.65500 276.000
22.70000 301.000
22.74500 330.000
22.79000 417.000
22.83500 446.000
22.88000 392.000
22.92500 305.000
22.97000 279.000
23.01500 261.000
23.06000 257.000
23.10500 253.000
23.15000 264.000
23.19500 240.000
23.24000 296.000
23.28500 297.000
23.33000 277.000
23.37500 378.000
23.42000 437.000
23.46500 445.000
23.51000 415.000
23.55500 362.000
23.60000 296.000
23.64500 270.000
23.69000 244.000
23.73500 282.000
23.78000 255.000
23.82500 232.000
23.87000 258.000
23.91500 246.000
23.96000 259.000
24.00500 248.000
24.05000 229.000
24.09500 254.000
24.14000 238.000
24.18500 273.000
24.23000 237.000
24.27500 261.000
24.32000 251.000
24.36500 239.000
24.41000 244.000
24.45500 245.000
24.50000 246.000
24.54500 264.000
24.59000 258.000
24.63500 250.000
24.68000 244.000
24.72500 228.000
24.77000 227.000
24.81500 235.000
24.86000 248.000
24.90500 258.000
24.95000 226.000
24.99500 250.000
25.04000 240.000
25.08500 218.000
25.13000 210.000
25.17500 222.000
25.22000 227.000
25.26500 223.000
25.31000 243.000
25.35500 219.000
25.40000 231.000
25.44500 250.000
25.49000 229.000
25.53500 261.000
25.58000 240.000
25.62500 232.000
25.67000 228.000
25.71500 222.000
25.76000 237.000
25.80500 231.000
25.85000 239.000
25.89500 220.000
25.94000 232.000
25.98500 251.000
26.03000 238.000
26.07500 288.000
26.12000 350.000
26.16500 574.000
26.21000 870.000
26.25500 490.000
26.30000 336.000
26.34500 255.000
26.39000 247.000
26.43500 277.000
26.48000 283.000
26.52500 304.000
26.57000 298.000
26.61500 319.000
26.66000 369.000
26.70500 433.000
26.75000 686.000
26.79500 675.000
26.84000 480.000
26.88500 397.000
26.93000 396.000
26.97500 435.000
27.02000 467.000
27.06500 543.000
27.11000 814.000
27.15500 1021.000
27.20000 581.000
27.24500 386.000
27.29000 334.000
27.33500 301.000
27.38000 340.000
27.42500 375.000
27.47000 502.000
27.51500 819.000
27.56000 1529.000
27.60500 1846.000
27.65000 810.000
27.69500 489.000
27.74000 447.000
27.78500 470.000
27.83000 482.000
27.87500 327.000
27.92000 299.000
27.96500 317.000
28.01000 331.000
28.05500 493.000
28.10000 513.000
28.14500 332.000
28.19000 256.000
28.23500 271.000
28.28000 245.000
28.32500 270.000
28.37000 281.000
28.41500 303.000
28.46000 387.000
28.50500 543.000
28.55000 910.000
28.59500 1183.000
28.64000 724.000
28.68500 494.000
28.73000 555.000
28.77500 486.000
28.82000 474.000
28.86500 431.000
28.91000 340.000
28.95500 325.000
29.00000 313.000
29.04500 304.000
29.09000 411.000
29.13500 443.000
29.18000 292.000
29.22500 269.000
29.27000 247.000
29.31500 236.000
29.36000 255.000
29.40500 310.000
29.45000 261.000
29.49500 253.000
29.54000 248.000
29.58500 271.000
29.63000 244.000
29.67500 246.000
29.72000 230.000
29.76500 229.000
29.81000 251.000
29.85500 260.000
29.90000 247.000
29.94500 271.000
29.99000 283.000
30.03500 322.000
30.08000 333.000
30.12500 398.000
30.17000 607.000
30.21500 1078.000
30.26000 1924.000
30.30500 1919.000
30.35000 2141.000
30.39500 1888.000
30.44000 903.000
30.48500 550.000
30.53000 373.000
30.57500 330.000
30.62000 288.000
30.66500 288.000
30.71000 269.000
30.75500 265.000
30.80000 259.000
30.84500 241.000
30.89000 249.000
30.93500 272.000
30.98000 235.000
31.02500 251.000
31.07000 296.000
31.11500 300.000
31.16000 349.000
31.20500 282.000
31.25000 294.000
31.29500 301.000
31.34000 305.000
31.38500 313.000
31.43000 346.000
31.47500 332.000
31.52000 390.000
31.56500 470.000
31.61000 640.000
31.65500 918.000
31.70000 1526.000
31.74500 1958.000
31.79000 2212.000
31.83500 2812.000
31.88000 2489.000
31.92500 1305.000
31.97000 778.000
32.01500 570.000
32.06000 445.000
32.10500 377.000
32.15000 365.000
32.19500 358.000
32.24000 309.000
32.28500 307.000
32.33000 325.000
32.37500 393.000
32.42000 557.000
32.46500 924.000
32.51000 2214.000
32.55500 2576.000
32.60000 898.000
32.64500 560.000
32.69000 556.000
32.73500 464.000
32.78000 364.000
32.82500 319.000
32.87000 251.000
32.91500 237.000
32.96000 223.000
33.00500 227.000
33.05000 219.000
33.09500 252.000
33.14000 229.000
33.18500 254.000
33.23000 299.000
33.27500 307.000
33.32000 246.000
33.36500 225.000
33.41000 230.000
33.45500 290.000
33.50000 406.000
33.54500 570.000
33.59000 317.000
33.63500 282.000
33.68000 319.000
33.72500 305.000
33.77000 253.000
33.81500 208.000
33.86000 225.000
33.90500 190.000
33.95000 199.000
33.99500 194.000
34.04000 200.000
34.08500 195.000
34.13000 185.000
34.17500 196.000
34.22000 175.000
34.26500 204.000
34.31000 190.000
34.35500 186.000
34.40000 212.000
34.44500 175.000
34.49000 187.000
34.53500 195.000
34.58000 195.000
34.62500 195.000
34.67000 167.000
34.71500 178.000
34.76000 185.000
34.80500 197.000
34.85000 182.000
34.89500 199.000
34.94000 219.000
34.98500 261.000
35.03000 345.000
35.07500 512.000
35.12000 479.000
35.16500 303.000
35.21000 268.000
35.25500 235.000
35.30000 265.000
35.34500 311.000
35.39000 355.000
35.43500 458.000
35.48000 629.000
35.52500 1296.000
35.57000 1081.000
35.61500 554.000
35.66000 351.000
35.70500 306.000
35.75000 249.000
35.79500 218.000
35.84000 220.000
35.88500 227.000
35.93000 232.000
35.97500 219.000
36.02000 272.000
36.06500 288.000
36.11000 445.000
36.15500 666.000
36.20000 934.000
36.24500 861.000
36.29000 946.000
36.33500 798.000
36.38000 442.000
36.42500 286.000
36.47000 239.000
36.51500 256.000
36.56000 252.000
36.60500 301.000
36.65000 334.000
36.69500 301.000
36.74000 282.000
36.78500 306.000
36.83000 315.000
36.87500 294.000
36.92000 254.000
36.96500 225.000
37.01000 209.000
37.05500 239.000
37.10000 248.000
37.14500 215.000
37.19000 241.000
37.23500 284.000
37.28000 298.000
37.32500 342.000
37.37000 469.000
37.41500 762.000
37.46000 1088.000
37.50500 889.000
37.55000 544.000
37.59500 416.000
37.64000 396.000
37.68500 493.000
37.73000 567.000
37.77500 474.000
37.82000 353.000
37.86500 263.000
37.91000 193.000
37.95500 202.000
38.00000 206.000
38.04500 196.000
38.09000 186.000
38.13500 192.000
38.18000 188.000
38.22500 259.000
38.27000 298.000
38.31500 230.000
38.36000 193.000
38.40500 200.000
38.45000 228.000
38.49500 262.000
38.54000 260.000
38.58500 218.000
38.63000 193.000
38.67500 164.000
38.72000 161.000
38.76500 174.000
38.81000 165.000
38.85500 173.000
38.90000 151.000
38.94500 158.000
38.99000 164.000
39.03500 155.000
39.08000 162.000
39.12500 159.000
39.17000 188.000
39.21500 174.000
39.26000 197.000
39.30500 191.000
39.35000 194.000
39.39500 207.000
39.44000 213.000
39.48500 214.000
39.53000 170.000
39.57500 177.000
39.62000 183.000
39.66500 223.000
39.71000 243.000
39.75500 290.000
39.80000 374.000
39.84500 469.000
39.89000 391.000
39.93500 393.000
39.98000 326.000
40.02500 218.000
40.07000 205.000
40.11500 175.000
40.16000 166.000
40.20500 184.000
40.25000 178.000
40.29500 182.000
40.34000 196.000
40.38500 210.000
40.43000 233.000
40.47500 244.000
40.52000 234.000
40.56500 220.000
40.61000 215.000
40.65500 219.000
40.70000 246.000
40.74500 273.000
40.79000 363.000
40.83500 514.000
40.88000 567.000
40.92500 599.000
40.97000 708.000
41.01500 432.000
41.06000 260.000
41.10500 235.000
41.15000 214.000
41.19500 253.000
41.24000 274.000
41.28500 314.000
41.33000 292.000
41.37500 213.000
41.42000 202.000
41.46500 218.000
41.51000 211.000
41.55500 221.000
41.60000 218.000
41.64500 233.000
41.69000 245.000
41.73500 332.000
41.78000 407.000
41.82500 440.000
41.87000 488.000
41.91500 517.000
41.96000 447.000
42.00500 487.000
42.05000 380.000
42.09500 303.000
42.14000 267.000
42.18500 285.000
42.23000 272.000
42.27500 297.000
42.32000 296.000
42.36500 286.000
42.41000 257.000
42.45500 234.000
42.50000 228.000
42.54500 256.000
42.59000 421.000
42.63500 593.000
42.68000 758.000
42.72500 675.000
42.77000 726.000
42.81500 974.000
42.86000 892.000
42.90500 542.000
42.95000 377.000
42.99500 346.000
43.04000 304.000
43.08500 301.000
43.13000 293.000
43.17500 305.000
43.22000 308.000
43.26500 313.000
43.31000 353.000
43.35500 500.000
43.40000 807.000
43.44500 1637.000
43.49000 1594.000
43.53500 675.000
43.58000 382.000
43.62500 272.000
43.67000 257.000
43.71500 225.000
43.76000 255.000
43.80500 255.000
43.85000 274.000
43.89500 335.000
43.94000 318.000
43.98500 366.000
44.03000 430.000
44.07500 413.000
44.12000 344.000
44.16500 334.000
44.21000 306.000
44.25500 265.000
44.30000 217.000
44.34500 211.000
44.39000 226.000
44.43500 187.000
44.48000 203.000
44.52500 201.000
44.57000 272.000
44.61500 399.000
44.66000 522.000
44.70500 419.000
44.75000 327.000
44.79500 296.000
44.84000 367.000
44.88500 309.000
44.93000 290.000
44.97500 267.000
45.02000 220.000
45.06500 202.000
45.11000 210.000
45.15500 200.000
45.20000 204.000
45.24500 241.000
45.29000 292.000
45.33500 315.000
45.38000 426.000
45.42500 605.000
45.47000 872.000
45.51500 1163.000
45.56000 830.000
45.60500 542.000
45.65000 465.000
45.69500 339.000
45.74000 269.000
45.78500 263.000
45.83000 253.000
45.87500 270.000
45.92000 318.000
45.96500 279.000
46.01000 243.000
46.05500 253.000
46.10000 239.000
46.14500 266.000
46.19000 253.000
46.23500 245.000
46.28000 221.000
46.32500 203.000
46.37000 220.000
46.41500 244.000
46.46000 309.000
46.50500 294.000
46.55000 272.000
46.59500 307.000
46.64000 404.000
46.68500 481.000
46.73000 552.000
46.77500 606.000
46.82000 635.000
46.86500 699.000
46.91000 573.000
46.95500 428.000
47.00000 386.000
47.04500 288.000
47.09000 234.000
47.13500 246.000
47.18000 230.000
47.22500 208.000
47.27000 196.000
47.31500 203.000
47.36000 192.000
47.40500 245.000
47.45000 342.000
47.49500 496.000
47.54000 659.000
47.58500 615.000
47.63000 358.000
47.67500 250.000
47.72000 237.000
47.76500 221.000
47.81000 247.000
47.85500 277.000
47.90000 311.000
47.94500 380.000
47.99000 486.000
48.03500 586.000
48.08000 474.000
48.12500 433.000
48.17000 403.000
48.21500 362.000
48.26000 401.000
48.30500 404.000
48.35000 384.000
48.39500 376.000
48.44000 352.000
48.48500 390.000
48.53000 404.000
48.57500 358.000
48.62000 380.000
48.66500 437.000
48.71000 494.000
48.75500 545.000
48.80000 386.000
48.84500 285.000
48.89000 245.000
48.93500 292.000
48.98000 268.000
49.02500 240.000
49.07000 230.000
49.11500 193.000
49.16000 182.000
49.20500 191.000
49.25000 273.000
49.29500 447.000
49.34000 533.000
49.38500 267.000
49.43000 196.000
49.47500 181.000
49.52000 164.000
49.56500 160.000
49.61000 182.000
49.65500 176.000
49.70000 199.000
49.74500 180.000
49.79000 221.000
49.83500 287.000
49.88000 384.000
49.92500 494.000
49.97000 424.000
50.01500 403.000
50.06000 318.000
50.10500 261.000
50.15000 225.000
50.19500 249.000
50.24000 228.000
50.28500 222.000
50.33000 202.000
50.37500 198.000
50.42000 199.000
50.46500 215.000
50.51000 218.000
50.55500 225.000
50.60000 257.000
50.64500 268.000
50.69000 292.000
50.73500 307.000
50.78000 260.000
50.82500 247.000
50.87000 311.000
50.91500 471.000
50.96000 660.000
51.00500 464.000
51.05000 295.000
51.09500 242.000
51.14000 207.000
51.18500 189.000
51.23000 166.000
51.27500 185.000
51.32000 185.000
51.36500 167.000
51.41000 171.000
51.45500 170.000
51.50000 162.000
51.54500 205.000
51.59000 200.000
51.63500 165.000
51.68000 196.000
51.72500 209.000
51.77000 245.000
51.81500 229.000
51.86000 193.000
51.90500 235.000
51.95000 245.000
51.99500 227.000
52.04000 214.000
52.08500 184.000
52.13000 153.000
52.17500 165.000
52.22000 156.000
52.26500 158.000
52.31000 155.000
52.35500 154.000
52.40000 158.000
52.44500 159.000
52.49000 147.000
52.53500 164.000
52.58000 211.000
52.62500 212.000
52.67000 272.000
52.71500 303.000
52.76000 353.000
52.80500 426.000
52.85000 380.000
52.89500 307.000
52.94000 310.000
52.98500 228.000
53.03000 245.000
53.07500 262.000
53.12000 241.000
53.16500 251.000
53.21000 214.000
53.25500 196.000
53.30000 169.000
53.34500 184.000
53.39000 175.000
53.43500 193.000
53.48000 191.000
53.52500 168.000
53.57000 162.000
53.61500 184.000
53.66000 148.000
53.70500 174.000
53.75000 145.000
53.79500 146.000
53.84000 164.000
53.88500 174.000
53.93000 179.000
53.97500 186.000
54.02000 158.000
54.06500 157.000
54.11000 153.000
54.15500 168.000
54.20000 149.000
54.24500 158.000
54.29000 201.000
54.33500 178.000
54.38000 217.000
54.42500 247.000
54.47000 247.000
54.51500 291.000
54.56000 358.000
54.60500 447.000
54.65000 435.000
54.69500 385.000
54.74000 330.000
54.78500 324.000
54.83000 346.000
54.87500 362.000
54.92000 380.000
54.96500 396.000
55.01000 388.000
55.05500 330.000
55.10000 310.000
55.14500 334.000
55.19000 480.000
55.23500 704.000
55.28000 768.000
55.32500 547.000
55.37000 607.000
55.41500 912.000
55.46000 708.000
55.50500 391.000
55.55000 311.000
55.59500 325.000
55.64000 276.000
55.68500 247.000
55.73000 193.000
55.77500 190.000
55.82000 198.000
55.86500 186.000
55.91000 205.000
55.95500 232.000
56.00000 238.000
56.04500 222.000
56.09000 284.000
56.13500 303.000
56.18000 279.000
56.22500 243.000
56.27000 252.000
56.31500 249.000
56.36000 250.000
56.40500 275.000
56.45000 287.000
56.49500 290.000
56.54000 262.000
56.58500 273.000
56.63000 318.000
56.67500 348.000
56.72000 314.000
56.76500 309.000
56.81000 315.000
56.85500 295.000
56.90000 316.000
56.94500 283.000
56.99000 270.000
57.03500 232.000
57.08000 228.000
57.12500 218.000
57.17000 235.000
57.21500 225.000
57.26000 253.000
57.30500 248.000
57.35000 270.000
57.39500 251.000
57.44000 204.000
57.48500 195.000
57.53000 205.000
57.57500 237.000
57.62000 219.000
57.66500 228.000
57.71000 195.000
57.75500 196.000
57.80000 209.000
57.84500 187.000
57.89000 199.000
57.93500 193.000
57.98000 226.000
58.02500 246.000
58.07000 299.000
58.11500 336.000
58.16000 358.000
58.20500 284.000
58.25000 264.000
58.29500 257.000
58.34000 262.000
58.38500 234.000
58.43000 227.000
58.47500 233.000
58.52000 215.000
58.56500 218.000
58.61000 206.000
58.65500 225.000
58.70000 215.000
58.74500 198.000
58.79000 195.000
58.83500 210.000
58.88000 207.000
58.92500 212.000
58.97000 185.000
59.01500 185.000
59.06000 175.000
59.10500 149.000
59.15000 163.000
59.19500 161.000
59.24000 186.000
59.28500 184.000
59.33000 186.000
59.37500 207.000
59.42000 235.000
59.46500 260.000
59.51000 285.000
59.55500 282.000
59.60000 253.000
59.64500 248.000
59.69000 246.000
59.73500 242.000
59.78000 213.000
59.82500 178.000
59.87000 203.000
59.91500 267.000
59.96000 287.000
60.00500 293.000
60.05000 275.000
60.09500 333.000
60.14000 383.000
60.18500 449.000
60.23000 397.000
60.27500 281.000
60.32000 261.000
60.36500 235.000
60.41000 232.000
60.45500 202.000
60.50000 195.000
60.54500 175.000
60.59000 185.000
60.63500 161.000
60.68000 187.000
60.72500 159.000
60.77000 147.000
60.81500 166.000
60.86000 175.000
60.90500 171.000
60.95000 214.000
60.99500 261.000
61.04000 270.000
61.08500 242.000
61.13000 211.000
61.17500 201.000
61.22000 238.000
61.26500 247.000
61.31000 230.000
61.35500 250.000
61.40000 276.000
61.44500 272.000
61.49000 250.000
61.53500 200.000
61.58000 174.000
61.62500 166.000
61.67000 153.000
61.71500 146.000
61.76000 167.000
61.80500 159.000
61.85000 161.000
61.89500 176.000
61.94000 218.000
61.98500 261.000