File: ISoD/xrd_data/HSC026_nachH2O_ranges_combined.xy
2.0 886.0
2.045 892.0
2.09 818.0
2.135 776.0
2.18 718.0
2.225 664.0
2.27 650.0
2.315 644.0
2.36 599.0
2.405 603.0
2.45 523.0
2.495 542.0
2.54 483.0
2.585 505.0
2.63 495.0
2.675 459.0
2.72 448.0
2.765 467.0
2.81 454.0
2.855 455.0
2.9 420.0
2.945 434.0
2.99 405.0
3.035 385.0
3.08 389.0
3.125 357.0
3.17 383.0
3.215 394.0
3.26 328.0
3.305 343.0
3.35 329.0
3.395 343.0
3.44 332.0
3.485 338.0
3.53 343.0
3.575 330.0
3.62 337.0
3.665 303.0
3.71 321.0
3.755 304.0
3.8 315.0
3.845 302.0
3.89 299.0
3.935 297.0
3.98 321.0
4.025 316.0
4.07 354.0
4.115 303.0
4.16 290.0
4.205 289.0
4.25 288.0
4.295 342.0
4.34 293.0
4.385 283.0
4.43 266.0
4.475 329.0
4.52 294.0
4.565 293.0
4.61 288.0
4.655 291.0
4.7 286.0
4.745 291.0
4.79 295.0
4.835 286.0
4.88 295.0
4.925 287.0
4.97 293.0
5.015 299.0
5.06 282.0
5.105 268.0
5.15 289.0
5.195 261.0
5.24 274.0
5.285 292.0
5.33 292.0
5.375 300.0
5.42 300.0
5.465 260.0
5.51 272.0
5.555 319.0
5.6 319.0
5.645 277.0
5.69 287.0
5.735 282.0
5.78 289.0
5.825 274.0
5.87 281.0
5.915 300.0
5.96 295.0
6.005 315.0
6.05 294.0
6.095 279.0
6.14 275.0
6.185 293.0
6.23 275.0
6.275 302.0
6.32 279.0
6.365 284.0
6.41 304.0
6.455 290.0
6.5 264.0
6.545 292.0
6.59 312.0
6.635 293.0
6.68 302.0
6.725 304.0
6.77 315.0
6.815 306.0
6.86 298.0
6.905 290.0
6.95 281.0
6.995 245.0
7.04 292.0
7.085 288.0
7.13 300.0
7.175 315.0
7.22 259.0
7.265 310.0
7.31 319.0
7.355 290.0
7.4 276.0
7.445 300.0
7.49 318.0
7.535 303.0
7.58 281.0
7.625 305.0
7.67 266.0
7.715 286.0
7.76 300.0
7.805 316.0
7.85 309.0
7.895 302.0
7.94 299.0
7.985 300.0
8.03 312.0
8.075 303.0
8.12 296.0
8.165 299.0
8.21 308.0
8.255 307.0
8.3 334.0
8.345 343.0
8.39 348.0
8.435 356.0
8.48 369.0
8.525 399.0
8.57 371.0
8.615 426.0
8.66 382.0
8.705 367.0
8.75 370.0
8.795 344.0
8.84 321.0
8.885 354.0
8.93 328.0
8.975 308.0
9.02 323.0
9.065 313.0
9.11 312.0
9.155 311.0
9.2 299.0
9.245 289.0
9.29 321.0
9.335 297.0
9.38 275.0
9.425 290.0
9.47 335.0
9.515 298.0
9.56 296.0
9.605 295.0
9.65 305.0
9.695 300.0
9.74 292.0
9.785 320.0
9.83 269.0
9.875 306.0
9.92 331.0
9.965 327.0
10.01 367.0
10.055 332.0
10.1 336.0
10.145 306.0
10.19 278.0
10.235 295.0
10.28 301.0
10.325 302.0
10.37 323.0
10.415 313.0
10.46 302.0
10.505 312.0
10.55 299.0
10.595 295.0
10.64 318.0
10.685 315.0
10.73 350.0
10.775 325.0
10.82 303.0
10.865 321.0
10.91 361.0
10.955 334.0
11.0 331.0
11.045 343.0
11.09 381.0
11.135 398.0
11.18 417.0
11.225 435.0
11.27 473.0
11.315 514.0
11.36 619.0
11.405 724.0
11.45 792.0
11.495 908.0
11.54 878.0
11.585 928.0
11.63 779.0
11.675 729.0
11.72 692.0
11.765 645.0
11.81 613.0
11.855 623.0
11.9 572.0
11.945 524.0
11.99 476.0
12.035 447.0
12.08 364.0
12.125 333.0
12.17 350.0
12.215 344.0
12.26 327.0
12.305 300.0
12.35 285.0
12.395 324.0
12.44 314.0
12.485 325.0
12.53 359.0
12.575 318.0
12.62 313.0
12.665 328.0
12.71 364.0
12.755 354.0
12.8 371.0
12.845 382.0
12.89 406.0
12.935 383.0
12.98 361.0
13.025 379.0
13.07 374.0
13.115 375.0
13.16 349.0
13.205 360.0
13.25 391.0
13.295 364.0
13.34 368.0
13.385 357.0
13.43 321.0
13.475 305.0
13.52 291.0
13.565 287.0
13.61 308.0
13.655 305.0
13.7 305.0
13.745 326.0
13.79 296.0
13.835 287.0
13.88 300.0
13.925 300.0
13.97 293.0
14.015 310.0
14.06 291.0
14.105 302.0
14.15 307.0
14.195 312.0
14.24 316.0
14.285 321.0
14.33 304.0
14.375 281.0
14.42 301.0
14.465 288.0
14.51 294.0
14.555 328.0
14.6 324.0
14.645 353.0
14.69 296.0
14.735 287.0
14.78 326.0
14.825 326.0
14.87 307.0
14.915 291.0
14.96 319.0
15.005 324.0
15.05 311.0
15.095 299.0
15.14 286.0
15.185 309.0
15.23 279.0
15.275 322.0
15.32 286.0
15.365 308.0
15.41 320.0
15.455 312.0
15.5 282.0
15.545 321.0
15.59 299.0
15.635 315.0
15.68 315.0
15.725 318.0
15.77 315.0
15.815 319.0
15.86 327.0
15.905 332.0
15.95 298.0
15.995 308.0
16.04 307.0
16.085 330.0
16.13 318.0
16.175 320.0
16.22 333.0
16.265 354.0
16.31 302.0
16.355 305.0
16.4 337.0
16.445 299.0
16.49 328.0
16.535 312.0
16.58 334.0
16.625 308.0
16.67 313.0
16.715 311.0
16.76 333.0
16.805 316.0
16.85 326.0
16.895 330.0
16.94 337.0
16.985 303.0
17.03 298.0
17.075 332.0
17.12 309.0
17.165 313.0
17.21 319.0
17.255 364.0
17.3 335.0
17.345 330.0
17.39 341.0
17.435 336.0
17.48 339.0
17.525 311.0
17.57 335.0
17.615 323.0
17.66 324.0
17.705 303.0
17.75 356.0
17.795 330.0
17.84 345.0
17.885 390.0
17.93 332.0
17.975 345.0
18.02 355.0
18.065 342.0
18.11 351.0
18.155 402.0
18.2 371.0
18.245 365.0
18.29 364.0
18.335 392.0
18.38 353.0
18.425 378.0
18.47 373.0
18.515 375.0
18.56 388.0
18.605 356.0
18.65 379.0
18.695 392.0
18.74 383.0
18.785 375.0
18.83 373.0
18.875 387.0
18.92 341.0
18.965 371.0
19.01 400.0
19.055 358.0
19.1 372.0
19.145 412.0
19.19 413.0
19.235 375.0
19.28 383.0
19.325 382.0
19.37 384.0
19.415 368.0
19.46 372.0
19.505 383.0
19.55 365.0
19.595 387.0
19.64 408.0
19.685 391.0
19.73 393.0
19.775 381.0
19.82 386.0
19.865 382.0
19.91 388.0
19.955 379.0
20.0 382.0
20.045 392.0
20.09 398.0
20.135 383.0
20.18 390.0
20.225 434.0
20.27 408.0
20.315 458.0
20.36 427.0
20.405 390.0
20.45 393.0
20.495 404.0
20.54 394.0
20.585 407.0
20.63 402.0
20.675 372.0
20.72 423.0
20.765 395.0
20.81 402.0
20.855 398.0
20.9 410.0
20.945 424.0
20.99 410.0
21.035 430.0
21.08 414.0
21.125 418.0
21.17 413.0
21.215 384.0
21.26 387.0
21.305 415.0
21.35 385.0
21.395 418.0
21.44 419.0
21.485 432.0
21.53 445.0
21.575 420.0
21.62 440.0
21.665 426.0
21.71 426.0
21.755 425.0
21.8 429.0
21.845 398.0
21.89 409.0
21.935 420.0
21.98 434.0
22.025 399.0
22.07 419.0
22.115 427.0
22.16 444.0
22.205 443.0
22.25 468.0
22.295 439.0
22.34 435.0
22.385 412.0
22.43 438.0
22.475 477.0
22.52 435.0
22.565 436.0
22.61 455.0
22.655 464.0
22.7 444.0
22.745 394.0
22.79 419.0
22.835 422.0
22.88 471.0
22.925 456.0
22.97 443.0
23.015 511.0
23.06 428.0
23.105 478.0
23.15 489.0
23.195 463.0
23.24 504.0
23.285 465.0
23.33 483.0
23.375 465.0
23.42 439.0
23.465 469.0
23.51 472.0
23.555 486.0
23.6 449.0
23.645 494.0
23.69 452.0
23.735 454.0
23.78 454.0
23.825 505.0
23.87 499.0
23.915 445.0
23.96 481.0
24.005 491.0
24.05 468.0
24.095 529.0
24.14 441.0
24.185 501.0
24.23 473.0
24.275 531.0
24.32 495.0
24.365 460.0
24.41 508.0
24.455 528.0
24.5 478.0
24.545 523.0
24.59 524.0
24.635 487.0
24.68 527.0
24.725 536.0
24.77 516.0
24.815 527.0
24.86 532.0
24.905 536.0
24.95 548.0
24.995 596.0
25.04 628.0
25.085 599.0
25.13 595.0
25.175 618.0
25.22 651.0
25.265 701.0
25.31 732.0
25.355 748.0
25.4 798.0
25.445 848.0
25.49 916.0
25.535 950.0
25.58 938.0
25.625 885.0
25.67 826.0
25.715 736.0
25.76 687.0
25.805 671.0
25.85 677.0
25.895 652.0
25.94 609.0
25.985 609.0
26.03 604.0
26.075 589.0
26.12 554.0
26.165 569.0
26.21 585.0
26.255 558.0
26.3 574.0
26.345 544.0
26.39 570.0
26.435 574.0
26.48 611.0
26.525 585.0
26.57 608.0
26.615 586.0
26.66 563.0
26.705 586.0
26.75 627.0
26.795 592.0
26.84 627.0
26.885 614.0
26.93 672.0
26.975 664.0
27.02 736.0
27.065 770.0
27.11 783.0
27.155 829.0
27.2 796.0
27.245 830.0
27.29 854.0
27.335 895.0
27.38 944.0
27.425 940.0
27.47 952.0
27.515 965.0
27.56 859.0
27.605 820.0
27.65 787.0
27.695 699.0
27.74 600.0
27.785 592.0
27.83 605.0
27.875 521.0
27.92 529.0
27.965 505.0
28.01 527.0
28.055 505.0
28.1 451.0
28.145 467.0
28.19 460.0
28.235 460.0
28.28 426.0
28.325 427.0
28.37 451.0
28.415 447.0
28.46 450.0
28.505 418.0
28.55 431.0
28.595 400.0
28.64 413.0
28.685 409.0
28.73 418.0
28.775 415.0
28.82 415.0
28.865 406.0
28.91 413.0
28.955 391.0
29.0 428.0
29.045 382.0
29.09 441.0
29.135 384.0
29.18 386.0
29.225 419.0
29.27 400.0
29.315 432.0
29.36 433.0
29.405 384.0
29.45 410.0
29.495 409.0
29.54 395.0
29.585 395.0
29.63 388.0
29.675 404.0
29.72 416.0
29.765 406.0
29.81 391.0
29.855 398.0
29.9 429.0
29.945 406.0
29.99 398.0
30.035 421.0
30.08 395.0
30.125 413.0
30.17 431.0
30.215 439.0
30.26 443.0
30.305 430.0
30.35 444.0
30.395 470.0
30.44 457.0
30.485 454.0
30.53 419.0
30.575 430.0
30.62 417.0
30.665 397.0
30.71 392.0
30.755 389.0
30.8 362.0
30.845 351.0
30.89 384.0
30.935 384.0
30.98 370.0
31.025 375.0
31.07 364.0
31.115 343.0
31.16 346.0
31.205 349.0
31.25 367.0
31.295 362.0
31.34 351.0
31.385 360.0
31.43 336.0
31.475 339.0
31.52 342.0
31.565 355.0
31.61 356.0
31.655 350.0
31.7 352.0
31.745 332.0
31.79 314.0
31.835 339.0
31.88 327.0
31.925 321.0
31.97 321.0
32.015 330.0
32.06 346.0
32.105 322.0
32.15 325.0
32.195 337.0
32.24 335.0
32.285 351.0
32.33 305.0
32.375 333.0
32.42 299.0
32.465 292.0
32.51 320.0
32.555 289.0
32.6 321.0
32.645 312.0
32.69 272.0
32.735 319.0
32.78 291.0
32.825 307.0
32.87 304.0
32.915 309.0
32.96 313.0
33.005 274.0
33.05 266.0
33.095 302.0
33.14 286.0
33.185 310.0
33.23 298.0
33.275 268.0
33.32 285.0
33.365 300.0
33.41 275.0
33.455 264.0
33.5 291.0
33.545 282.0
33.59 290.0
33.635 272.0
33.68 284.0
33.725 306.0
33.77 271.0
33.815 281.0
33.86 274.0
33.905 286.0
33.95 254.0
33.995 287.0
34.04 293.0
34.085 284.0
34.13 285.0
34.175 262.0
34.22 274.0
34.265 269.0
34.31 286.0
34.355 257.0
34.4 282.0
34.445 282.0
34.49 251.0
34.535 246.0
34.58 254.0
34.625 281.0
34.67 258.0
34.715 275.0
34.76 262.0
34.805 284.0
34.85 253.0
34.895 247.0
34.94 252.0
34.985 283.0
35.03 237.0
35.075 252.0
35.12 254.0
35.165 265.0
35.21 248.0
35.255 239.0
35.3 245.0
35.345 237.0
35.39 264.0
35.435 230.0
35.48 229.0
35.525 233.0
35.57 231.0
35.615 254.0
35.66 215.0
35.705 245.0
35.75 223.0
35.795 246.0
35.84 249.0
35.885 228.0
35.93 250.0
35.975 236.0
36.02 213.0
36.065 224.0
36.11 245.0
36.155 196.0
36.2 221.0
36.245 210.0
36.29 216.0
36.335 241.0
36.38 227.0
36.425 223.0
36.47 200.0
36.515 212.0
36.56 227.0
36.605 203.0
36.65 215.0
36.695 233.0
36.74 210.0
36.785 196.0
36.83 197.0
36.875 221.0
36.92 205.0
36.965 205.0
37.01 216.0
37.055 215.0
37.1 204.0
37.145 227.0
37.19 197.0
37.235 216.0
37.28 197.0
37.325 225.0
37.37 205.0
37.415 234.0
37.46 205.0
37.505 205.0
37.55 167.0
37.595 217.0
37.64 201.0
37.685 204.0
37.73 216.0
37.775 194.0
37.82 201.0
37.865 197.0
37.91 194.0
37.955 206.0
38.0 186.0
38.045 209.0
38.09 205.0
38.135 204.0
38.18 202.0
38.225 207.0
38.27 203.0
38.315 204.0
38.36 197.0
38.405 188.0
38.45 196.0
38.495 175.0
38.54 176.0
38.585 195.0
38.63 210.0
38.675 196.0
38.72 219.0
38.765 205.0
38.81 208.0
38.855 195.0
38.9 179.0
38.945 183.0
38.99 187.0
39.035 205.0
39.08 196.0
39.125 199.0
39.17 212.0
39.215 190.0
39.26 193.0
39.305 188.0
39.35 224.0
39.395 186.0
39.44 195.0
39.485 211.0
39.53 203.0
39.575 208.0
39.62 214.0
39.665 200.0
39.71 200.0
39.755 207.0
39.8 208.0
39.845 187.0
39.89 197.0
39.935 200.0
39.98 193.0
40.025 190.0
40.07 198.0
40.115 205.0
40.16 212.0
40.205 209.0
40.25 205.0
40.295 218.0
40.34 210.0
40.385 201.0
40.43 215.0
40.475 213.0
40.52 194.0
40.565 206.0
40.61 221.0
40.655 194.0
40.7 216.0
40.745 210.0
40.79 197.0
40.835 192.0
40.88 202.0
40.925 184.0
40.97 209.0
41.015 225.0
41.06 190.0
41.105 212.0
41.15 202.0
41.195 220.0
41.24 197.0
41.285 212.0
41.33 204.0
41.375 193.0
41.42 201.0
41.465 226.0
41.51 211.0
41.555 217.0
41.6 200.0
41.645 195.0
41.69 218.0
41.735 222.0
41.78 203.0
41.825 180.0
41.87 179.0
41.915 197.0
41.96 194.0
42.005 199.0
42.05 189.0
42.095 182.0
42.14 186.0
42.185 180.0
42.23 189.0
42.275 188.0
42.32 205.0
42.365 188.0
42.41 205.0
42.455 192.0
42.5 190.0
42.545 207.0
42.59 190.0
42.635 216.0
42.68 199.0
42.725 196.0
42.77 202.0
42.815 192.0
42.86 198.0
42.905 176.0
42.95 191.0
42.995 187.0
43.04 183.0
43.085 196.0
43.13 172.0
43.175 183.0
43.22 197.0
43.265 192.0
43.31 180.0
43.355 205.0
43.4 199.0
43.445 201.0
43.49 181.0
43.535 174.0
43.58 193.0
43.625 187.0
43.67 190.0
43.715 218.0
43.76 179.0
43.805 185.0
43.85 188.0
43.895 181.0
43.94 200.0
43.985 163.0
44.03 209.0
44.075 199.0
44.12 172.0
44.165 198.0
44.21 189.0
44.255 186.0
44.3 195.0
44.345 181.0
44.39 187.0
44.435 187.0
44.48 186.0
44.525 179.0
44.57 171.0
44.615 180.0
44.66 192.0
44.705 181.0
44.75 172.0
44.795 173.0
44.84 195.0
44.885 173.0
44.93 195.0
44.975 183.0
45.02 192.0
45.065 199.0
45.11 184.0
45.155 200.0
45.2 154.0
45.245 174.0
45.29 184.0
45.335 185.0
45.38 168.0
45.425 202.0
45.47 193.0
45.515 187.0
45.56 186.0
45.605 178.0
45.65 196.0
45.695 196.0
45.74 189.0
45.785 205.0
45.83 194.0
45.875 166.0
45.92 180.0
45.965 170.0
46.01 199.0
46.055 171.0
46.1 175.0
46.145 179.0
46.19 165.0
46.235 171.0
46.28 177.0
46.325 192.0
46.37 189.0
46.415 187.0
46.46 182.0
46.505 158.0
46.55 184.0
46.595 174.0
46.64 198.0
46.685 180.0
46.73 181.0
46.775 173.0
46.82 160.0
46.865 159.0
46.91 163.0
46.955 153.0
47.0 170.0
47.045 174.0
47.09 183.0
47.135 176.0
47.18 186.0
47.225 175.0
47.27 164.0
47.315 189.0
47.36 151.0
47.405 172.0
47.45 164.0
47.495 172.0
47.54 175.0
47.585 171.0
47.63 162.0
47.675 157.0
47.72 171.0
47.765 165.0
47.81 159.0
47.855 190.0
47.9 175.0
47.945 194.0
47.99 150.0
48.035 157.0
48.08 183.0
48.125 198.0
48.17 182.0
48.215 151.0
48.26 163.0
48.305 166.0
48.35 160.0
48.395 172.0
48.44 163.0
48.485 149.0
48.53 170.0
48.575 157.0
48.62 167.0
48.665 163.0
48.71 170.0
48.755 157.0
48.8 168.0
48.845 177.0
48.89 175.0
48.935 164.0
48.98 168.0
49.025 163.0
49.07 141.0
49.115 146.0
49.16 157.0
49.205 153.0
49.25 160.0
49.295 166.0
49.34 155.0
49.385 159.0
49.43 173.0
49.475 177.0
49.52 186.0
49.565 163.0
49.61 165.0
49.655 167.0
49.7 147.0
49.745 166.0
49.79 157.0
49.835 162.0
49.88 158.0
49.925 151.0
49.97 151.0
50.015 158.0
50.06 161.0
50.105 145.0
50.15 172.0
50.195 147.0
50.24 150.0
50.285 150.0
50.33 143.0
50.375 156.0
50.42 164.0
50.465 154.0
50.51 163.0
50.555 150.0
50.6 155.0
50.645 149.0
50.69 160.0
50.735 155.0
50.78 165.0
50.825 146.0
50.87 152.0
50.915 124.0
50.96 154.0
51.005 160.0
51.05 158.0
51.095 154.0
51.14 165.0
51.185 154.0
51.23 163.0
51.275 154.0
51.32 159.0
51.365 151.0
51.41 169.0
51.455 167.0
51.5 162.0
51.545 154.0
51.59 149.0
51.635 155.0
51.68 152.0
51.725 170.0
51.77 161.0
51.815 166.0
51.86 156.0
51.905 152.0
51.95 160.0
51.995 154.0
52.04 173.0
52.085 173.0
52.13 154.0
52.175 169.0
52.22 157.0
52.265 136.0
52.31 146.0
52.355 149.0
52.4 142.0
52.445 146.0
52.49 171.0
52.535 159.0
52.58 157.0
52.625 153.0
52.67 143.0
52.715 156.0
52.76 165.0
52.805 156.0
52.85 160.0
52.895 143.0
52.94 153.0
52.985 165.0
53.03 159.0
53.075 148.0
53.12 158.0
53.165 162.0
53.21 148.0
53.255 161.0
53.3 171.0
53.345 151.0
53.39 160.0
53.435 149.0
53.48 148.0
53.525 159.0
53.57 144.0
53.615 153.0
53.66 152.0
53.705 154.0
53.75 149.0
53.795 171.0
53.84 161.0
53.885 148.0
53.93 166.0
53.975 171.0
54.02 145.0
54.065 163.0
54.11 176.0
54.155 154.0
54.2 153.0
54.245 163.0
54.29 145.0
54.335 172.0
54.38 163.0
54.425 155.0
54.47 160.0
54.515 150.0
54.56 153.0
54.605 147.0
54.65 159.0
54.695 148.0
54.74 136.0
54.785 166.0
54.83 149.0
54.875 168.0
54.92 143.0
54.965 166.0
55.01 168.0
55.055 151.0
55.1 159.0
55.145 164.0
55.19 134.0
55.235 172.0
55.28 149.0
55.325 147.0
55.37 150.0
55.415 152.0
55.46 167.0
55.505 140.0
55.55 135.0
55.595 156.0
55.64 149.0
55.685 153.0
55.73 147.0
55.775 148.0
55.82 149.0
55.865 151.0
55.91 149.0
55.955 153.0
56.0 148.0
56.045 154.0
56.09 162.0
56.135 155.0
56.18 147.0
56.225 138.0
56.27 152.0
56.315 155.0
56.36 154.0
56.405 163.0
56.45 130.0
56.495 135.0
56.54 147.0
56.585 157.0
56.63 149.0
56.675 142.0
56.72 149.0
56.765 151.0
56.81 149.0
56.855 125.0
56.9 138.0
56.945 140.0
56.99 153.0
57.035 149.0
57.08 144.0
57.125 152.0
57.17 156.0
57.215 158.0
57.26 144.0
57.305 153.0
57.35 149.0
57.395 144.0
57.44 172.0
57.485 155.0
57.53 146.0
57.575 148.0
57.62 130.0
57.665 149.0
57.71 138.0
57.755 153.0
57.8 147.0
57.845 137.0
57.89 147.0
57.935 145.0
57.98 157.0
58.025 135.0
58.07 143.0
58.115 146.0
58.16 142.0
58.205 162.0
58.25 138.0
58.295 148.0
58.34 161.0
58.385 145.0
58.43 161.0
58.475 146.0
58.52 154.0
58.565 140.0
58.61 147.0
58.655 148.0
58.7 141.0
58.745 147.0
58.79 157.0
58.835 144.0
58.88 153.0
58.925 148.0
58.97 148.0
59.015 137.0
59.06 148.0
59.105 132.0
59.15 143.0
59.195 156.0
59.24 143.0
59.285 145.0
59.33 153.0
59.375 161.0
59.42 143.0
59.465 152.0
59.51 131.0
59.555 145.0
59.6 149.0
59.645 150.0
59.69 150.0
59.735 144.0
59.78 169.0
59.825 159.0
59.87 140.0
59.915 145.0
59.96 134.0
60.005 147.0
60.05 153.0
60.095 142.0
60.14 143.0
60.185 141.0
60.23 153.0
60.275 134.0
60.32 143.0
60.365 134.0
60.41 143.0
60.455 123.0
60.5 140.0
60.545 144.0
60.59 158.0
60.635 132.0
60.68 144.0
60.725 129.0
60.77 144.0
60.815 122.0
60.86 145.0
60.905 160.0
60.95 143.0
60.995 115.0
61.04 140.0
61.085 150.0
61.13 152.0
61.175 150.0
61.22 134.0
61.265 140.0
61.31 139.0
61.355 138.0
61.4 135.0
61.445 146.0
61.49 138.0
61.535 161.0
61.58 138.0
61.625 151.0
61.67 154.0
61.715 135.0
61.76 135.0
61.805 123.0
61.85 144.0
61.895 147.0
61.94 127.0
61.985 138.0