File: ISoD/xrd_data/HSC026_nach410C_range_1.xy
2.00000 748.000
2.04500 693.000
2.09000 639.000
2.13500 617.000
2.18000 552.000
2.22500 552.000
2.27000 506.000
2.31500 478.000
2.36000 448.000
2.40500 457.000
2.45000 441.000
2.49500 382.000
2.54000 392.000
2.58500 367.000
2.63000 342.000
2.67500 346.000
2.72000 316.000
2.76500 337.000
2.81000 295.000
2.85500 282.000
2.90000 284.000
2.94500 278.000
2.99000 281.000
3.03500 269.000
3.08000 233.000
3.12500 270.000
3.17000 251.000
3.21500 244.000
3.26000 241.000
3.30500 235.000
3.35000 240.000
3.39500 207.000
3.44000 212.000
3.48500 229.000
3.53000 209.000
3.57500 183.000
3.62000 212.000
3.66500 187.000
3.71000 191.000
3.75500 197.000
3.80000 196.000
3.84500 179.000
3.89000 204.000
3.93500 187.000
3.98000 197.000
4.02500 200.000
4.07000 210.000
4.11500 191.000
4.16000 180.000
4.20500 166.000
4.25000 171.000
4.29500 174.000
4.34000 176.000
4.38500 187.000
4.43000 175.000
4.47500 174.000
4.52000 177.000
4.56500 171.000
4.61000 165.000
4.65500 167.000
4.70000 167.000
4.74500 173.000
4.79000 145.000
4.83500 178.000
4.88000 157.000
4.92500 200.000
4.97000 177.000
5.01500 161.000
5.06000 175.000
5.10500 166.000
5.15000 165.000
5.19500 175.000
5.24000 141.000
5.28500 167.000
5.33000 166.000
5.37500 167.000
5.42000 170.000
5.46500 167.000
5.51000 172.000
5.55500 163.000
5.60000 156.000
5.64500 160.000
5.69000 150.000
5.73500 177.000
5.78000 181.000
5.82500 179.000
5.87000 171.000
5.91500 153.000
5.96000 189.000
6.00500 167.000
6.05000 179.000
6.09500 177.000
6.14000 152.000
6.18500 172.000
6.23000 183.000
6.27500 171.000
6.32000 195.000
6.36500 151.000
6.41000 174.000
6.45500 172.000
6.50000 197.000
6.54500 187.000
6.59000 179.000
6.63500 168.000
6.68000 170.000
6.72500 179.000
6.77000 167.000
6.81500 167.000
6.86000 163.000
6.90500 179.000
6.95000 149.000
6.99500 174.000
7.04000 191.000
7.08500 161.000
7.13000 169.000
7.17500 196.000
7.22000 188.000
7.26500 176.000
7.31000 158.000
7.35500 174.000
7.40000 188.000
7.44500 175.000
7.49000 194.000
7.53500 173.000
7.58000 166.000
7.62500 178.000
7.67000 167.000
7.71500 171.000
7.76000 165.000
7.80500 158.000
7.85000 157.000
7.89500 178.000
7.94000 191.000
7.98500 172.000
8.03000 190.000
8.07500 180.000
8.12000 190.000
8.16500 196.000
8.21000 197.000
8.25500 189.000
8.30000 195.000
8.34500 212.000
8.39000 229.000
8.43500 245.000
8.48000 243.000
8.52500 255.000
8.57000 225.000
8.61500 238.000
8.66000 251.000
8.70500 235.000
8.75000 234.000
8.79500 217.000
8.84000 211.000
8.88500 216.000
8.93000 187.000
8.97500 195.000
9.02000 176.000
9.06500 175.000
9.11000 183.000
9.15500 172.000
9.20000 172.000
9.24500 182.000
9.29000 167.000
9.33500 171.000
9.38000 160.000
9.42500 182.000
9.47000 185.000
9.51500 165.000
9.56000 187.000
9.60500 172.000
9.65000 178.000
9.69500 195.000
9.74000 154.000
9.78500 176.000
9.83000 180.000
9.87500 171.000
9.92000 183.000
9.96500 178.000
10.01000 204.000
10.05500 216.000
10.10000 209.000
10.14500 182.000
10.19000 193.000
10.23500 202.000
10.28000 173.000
10.32500 180.000
10.37000 177.000
10.41500 186.000
10.46000 196.000
10.50500 185.000
10.55000 178.000
10.59500 161.000
10.64000 196.000
10.68500 186.000
10.73000 187.000
10.77500 196.000
10.82000 194.000
10.86500 190.000
10.91000 226.000
10.95500 203.000
11.00000 219.000
11.04500 240.000
11.09000 236.000
11.13500 256.000
11.18000 270.000
11.22500 317.000
11.27000 301.000
11.31500 353.000
11.36000 404.000
11.40500 471.000
11.45000 508.000
11.49500 599.000
11.54000 662.000
11.58500 670.000
11.63000 619.000
11.67500 523.000
11.72000 494.000
11.76500 442.000
11.81000 424.000
11.85500 390.000
11.90000 378.000
11.94500 402.000
11.99000 354.000
12.03500 314.000
12.08000 252.000
12.12500 206.000
12.17000 204.000
12.21500 200.000
12.26000 184.000
12.30500 211.000
12.35000 179.000
12.39500 196.000
12.44000 197.000
12.48500 189.000
12.53000 181.000
12.57500 192.000
12.62000 195.000
12.66500 206.000
12.71000 195.000
12.75500 217.000
12.80000 241.000
12.84500 243.000
12.89000 268.000
12.93500 223.000
12.98000 260.000
13.02500 249.000
13.07000 223.000
13.11500 230.000
13.16000 210.000
13.20500 196.000
13.25000 203.000
13.29500 221.000
13.34000 211.000
13.38500 211.000
13.43000 202.000
13.47500 206.000
13.52000 177.000
13.56500 178.000
13.61000 196.000
13.65500 183.000
13.70000 193.000
13.74500 174.000
13.79000 160.000
13.83500 174.000
13.88000 167.000
13.92500 184.000
13.97000 181.000
14.01500 181.000
14.06000 166.000
14.10500 157.000
14.15000 187.000
14.19500 169.000
14.24000 190.000
14.28500 168.000
14.33000 186.000
14.37500 184.000
14.42000 160.000
14.46500 160.000
14.51000 163.000
14.55500 177.000
14.60000 162.000
14.64500 172.000
14.69000 176.000
14.73500 164.000
14.78000 166.000
14.82500 168.000
14.87000 165.000
14.91500 159.000
14.96000 177.000
15.00500 184.000
15.05000 168.000
15.09500 167.000
15.14000 181.000
15.18500 169.000
15.23000 170.000
15.27500 159.000
15.32000 163.000
15.36500 164.000
15.41000 159.000
15.45500 169.000
15.50000 181.000
15.54500 154.000
15.59000 178.000
15.63500 167.000
15.68000 188.000
15.72500 166.000
15.77000 164.000
15.81500 184.000
15.86000 179.000
15.90500 179.000
15.95000 170.000
15.99500 175.000
16.04000 177.000
16.08500 164.000
16.13000 172.000
16.17500 154.000
16.22000 190.000
16.26500 182.000
16.31000 191.000
16.35500 173.000
16.40000 170.000
16.44500 167.000
16.49000 174.000
16.53500 179.000
16.58000 167.000
16.62500 170.000
16.67000 193.000
16.71500 170.000
16.76000 176.000
16.80500 181.000
16.85000 163.000
16.89500 171.000
16.94000 177.000
16.98500 181.000
17.03000 186.000
17.07500 177.000
17.12000 164.000
17.16500 200.000
17.21000 171.000
17.25500 190.000
17.30000 186.000
17.34500 177.000
17.39000 181.000
17.43500 184.000
17.48000 201.000
17.52500 183.000
17.57000 196.000
17.61500 193.000
17.66000 160.000
17.70500 179.000
17.75000 189.000
17.79500 155.000
17.84000 197.000
17.88500 175.000
17.93000 166.000
17.97500 189.000
18.02000 171.000
18.06500 183.000
18.11000 186.000
18.15500 175.000
18.20000 204.000
18.24500 191.000
18.29000 181.000
18.33500 205.000
18.38000 208.000
18.42500 209.000
18.47000 180.000
18.51500 221.000
18.56000 206.000
18.60500 187.000
18.65000 213.000
18.69500 201.000
18.74000 200.000
18.78500 217.000
18.83000 200.000
18.87500 214.000
18.92000 204.000
18.96500 175.000
19.01000 184.000
19.05500 209.000
19.10000 195.000
19.14500 192.000
19.19000 212.000
19.23500 213.000
19.28000 208.000
19.32500 203.000
19.37000 205.000
19.41500 213.000
19.46000 218.000
19.50500 187.000
19.55000 214.000
19.59500 207.000
19.64000 219.000
19.68500 211.000
19.73000 200.000
19.77500 218.000
19.82000 206.000
19.86500 219.000
19.91000 214.000
19.95500 209.000
20.00000 208.000
20.04500 231.000
20.09000 208.000
20.13500 212.000
20.18000 211.000
20.22500 209.000
20.27000 215.000
20.31500 217.000
20.36000 228.000
20.40500 217.000
20.45000 214.000
20.49500 211.000
20.54000 235.000
20.58500 192.000
20.63000 199.000
20.67500 234.000
20.72000 228.000
20.76500 219.000
20.81000 240.000
20.85500 214.000
20.90000 216.000
20.94500 225.000
20.99000 207.000
21.03500 194.000
21.08000 214.000
21.12500 212.000
21.17000 222.000
21.21500 227.000
21.26000 219.000
21.30500 215.000
21.35000 215.000
21.39500 205.000
21.44000 213.000
21.48500 213.000
21.53000 223.000
21.57500 207.000
21.62000 211.000
21.66500 228.000
21.71000 226.000
21.75500 217.000
21.80000 226.000
21.84500 218.000
21.89000 210.000
21.93500 232.000
21.98000 211.000
22.02500 230.000
22.07000 237.000
22.11500 231.000
22.16000 216.000
22.20500 214.000
22.25000 222.000
22.29500 204.000
22.34000 234.000
22.38500 233.000
22.43000 245.000
22.47500 234.000
22.52000 224.000
22.56500 225.000
22.61000 243.000
22.65500 223.000
22.70000 236.000
22.74500 229.000
22.79000 242.000
22.83500 241.000
22.88000 239.000
22.92500 239.000
22.97000 240.000
23.01500 262.000
23.06000 249.000
23.10500 242.000
23.15000 263.000
23.19500 258.000
23.24000 242.000
23.28500 254.000
23.33000 248.000
23.37500 244.000
23.42000 267.000
23.46500 234.000
23.51000 253.000
23.55500 252.000
23.60000 239.000
23.64500 263.000
23.69000 258.000
23.73500 261.000
23.78000 277.000
23.82500 262.000
23.87000 257.000
23.91500 260.000
23.96000 264.000
24.00500 250.000
24.05000 258.000
24.09500 262.000
24.14000 284.000
24.18500 253.000
24.23000 280.000
24.27500 276.000
24.32000 264.000
24.36500 274.000
24.41000 284.000
24.45500 258.000
24.50000 266.000
24.54500 300.000
24.59000 281.000
24.63500 288.000
24.68000 314.000
24.72500 290.000
24.77000 307.000
24.81500 299.000
24.86000 331.000
24.90500 337.000
24.95000 323.000
24.99500 363.000
25.04000 335.000
25.08500 351.000
25.13000 394.000
25.17500 414.000
25.22000 404.000
25.26500 402.000
25.31000 432.000
25.35500 475.000
25.40000 475.000
25.44500 484.000
25.49000 543.000
25.53500 546.000
25.58000 607.000
25.62500 587.000
25.67000 526.000
25.71500 535.000
25.76000 461.000
25.80500 430.000
25.85000 439.000
25.89500 430.000
25.94000 360.000
25.98500 386.000
26.03000 375.000
26.07500 371.000
26.12000 352.000
26.16500 330.000
26.21000 356.000
26.25500 363.000
26.30000 347.000
26.34500 344.000
26.39000 358.000
26.43500 362.000
26.48000 388.000
26.52500 360.000
26.57000 334.000
26.61500 375.000
26.66000 336.000
26.70500 360.000
26.75000 355.000
26.79500 370.000
26.84000 369.000
26.88500 387.000
26.93000 362.000
26.97500 408.000
27.02000 476.000
27.06500 463.000
27.11000 467.000
27.15500 523.000
27.20000 540.000
27.24500 556.000
27.29000 557.000
27.33500 591.000
27.38000 577.000
27.42500 638.000
27.47000 597.000
27.51500 631.000
27.56000 588.000
27.60500 571.000
27.65000 555.000
27.69500 489.000
27.74000 418.000
27.78500 378.000
27.83000 351.000
27.87500 324.000
27.92000 313.000
27.96500 304.000
28.01000 298.000
28.05500 274.000
28.10000 265.000
28.14500 243.000
28.19000 275.000
28.23500 256.000
28.28000 252.000
28.32500 242.000
28.37000 233.000
28.41500 206.000
28.46000 258.000
28.50500 212.000
28.55000 209.000
28.59500 219.000
28.64000 229.000
28.68500 234.000
28.73000 226.000
28.77500 218.000
28.82000 219.000
28.86500 229.000
28.91000 199.000
28.95500 201.000
29.00000 182.000
29.04500 205.000
29.09000 225.000
29.13500 201.000
29.18000 219.000
29.22500 199.000
29.27000 206.000
29.31500 208.000
29.36000 202.000
29.40500 235.000
29.45000 214.000
29.49500 215.000
29.54000 191.000
29.58500 201.000
29.63000 214.000
29.67500 196.000
29.72000 217.000
29.76500 218.000
29.81000 212.000
29.85500 210.000
29.90000 208.000
29.94500 216.000
29.99000 211.000
30.03500 220.000
30.08000 209.000
30.12500 209.000
30.17000 222.000
30.21500 229.000
30.26000 227.000
30.30500 217.000
30.35000 231.000
30.39500 263.000
30.44000 275.000
30.48500 271.000
30.53000 232.000
30.57500 227.000
30.62000 203.000
30.66500 227.000
30.71000 221.000
30.75500 201.000
30.80000 206.000
30.84500 219.000
30.89000 216.000
30.93500 212.000
30.98000 178.000
31.02500 192.000
31.07000 195.000
31.11500 207.000
31.16000 196.000
31.20500 180.000
31.25000 191.000
31.29500 185.000
31.34000 176.000
31.38500 163.000
31.43000 167.000
31.47500 186.000
31.52000 170.000
31.56500 173.000
31.61000 177.000
31.65500 169.000
31.70000 161.000
31.74500 177.000
31.79000 179.000
31.83500 185.000
31.88000 179.000
31.92500 168.000
31.97000 181.000
32.01500 162.000
32.06000 170.000
32.10500 171.000
32.15000 161.000
32.19500 155.000
32.24000 176.000
32.28500 164.000
32.33000 158.000
32.37500 153.000
32.42000 157.000
32.46500 144.000
32.51000 154.000
32.55500 167.000
32.60000 179.000
32.64500 150.000
32.69000 170.000
32.73500 160.000
32.78000 156.000
32.82500 144.000
32.87000 153.000
32.91500 148.000
32.96000 165.000
33.00500 157.000
33.05000 142.000
33.09500 143.000
33.14000 143.000
33.18500 165.000
33.23000 147.000
33.27500 144.000
33.32000 169.000
33.36500 149.000
33.41000 154.000
33.45500 155.000
33.50000 155.000
33.54500 150.000
33.59000 144.000
33.63500 135.000
33.68000 145.000
33.72500 152.000
33.77000 152.000
33.81500 143.000
33.86000 140.000
33.90500 148.000
33.95000 139.000
33.99500 152.000
34.04000 136.000
34.08500 149.000
34.13000 143.000
34.17500 139.000
34.22000 126.000
34.26500 145.000
34.31000 152.000
34.35500 129.000
34.40000 133.000
34.44500 141.000
34.49000 146.000
34.53500 142.000
34.58000 136.000
34.62500 141.000
34.67000 124.000
34.71500 153.000
34.76000 155.000
34.80500 133.000
34.85000 139.000
34.89500 137.000
34.94000 146.000
34.98500 139.000
35.03000 149.000
35.07500 131.000
35.12000 133.000
35.16500 126.000
35.21000 153.000
35.25500 138.000
35.30000 124.000
35.34500 114.000
35.39000 122.000
35.43500 134.000
35.48000 119.000
35.52500 129.000
35.57000 139.000
35.61500 131.000
35.66000 123.000
35.70500 115.000
35.75000 123.000
35.79500 131.000
35.84000 120.000
35.88500 117.000
35.93000 110.000
35.97500 123.000
36.02000 99.000
36.06500 118.000
36.11000 123.000
36.15500 110.000
36.20000 112.000
36.24500 118.000
36.29000 130.000
36.33500 114.000
36.38000 96.000
36.42500 130.000
36.47000 115.000
36.51500 122.000
36.56000 106.000
36.60500 112.000
36.65000 108.000
36.69500 115.000
36.74000 118.000
36.78500 117.000
36.83000 113.000
36.87500 110.000
36.92000 110.000
36.96500 116.000
37.01000 108.000
37.05500 101.000
37.10000 119.000
37.14500 116.000
37.19000 121.000
37.23500 98.000
37.28000 114.000
37.32500 116.000
37.37000 106.000
37.41500 99.000
37.46000 112.000
37.50500 103.000
37.55000 99.000
37.59500 108.000
37.64000 102.000
37.68500 98.000
37.73000 117.000
37.77500 109.000
37.82000 120.000
37.86500 106.000
37.91000 123.000
37.95500 104.000
38.00000 111.000
38.04500 110.000
38.09000 115.000
38.13500 90.000
38.18000 110.000
38.22500 105.000
38.27000 118.000
38.31500 112.000
38.36000 112.000
38.40500 109.000
38.45000 103.000
38.49500 117.000
38.54000 99.000
38.58500 104.000
38.63000 98.000
38.67500 98.000
38.72000 103.000
38.76500 117.000
38.81000 106.000
38.85500 115.000
38.90000 101.000
38.94500 109.000
38.99000 104.000
39.03500 115.000
39.08000 110.000
39.12500 111.000
39.17000 106.000
39.21500 104.000
39.26000 107.000
39.30500 127.000
39.35000 99.000
39.39500 109.000
39.44000 110.000
39.48500 110.000
39.53000 121.000
39.57500 110.000
39.62000 100.000
39.66500 115.000
39.71000 110.000
39.75500 103.000
39.80000 116.000
39.84500 115.000
39.89000 117.000
39.93500 101.000
39.98000 113.000
40.02500 110.000
40.07000 113.000
40.11500 140.000
40.16000 116.000
40.20500 119.000
40.25000 119.000
40.29500 118.000
40.34000 104.000
40.38500 112.000
40.43000 107.000
40.47500 123.000
40.52000 127.000
40.56500 114.000
40.61000 116.000
40.65500 116.000
40.70000 119.000
40.74500 118.000
40.79000 114.000
40.83500 126.000
40.88000 120.000
40.92500 121.000
40.97000 118.000
41.01500 98.000
41.06000 135.000
41.10500 123.000
41.15000 115.000
41.19500 104.000
41.24000 100.000
41.28500 113.000
41.33000 125.000
41.37500 115.000
41.42000 105.000
41.46500 133.000
41.51000 95.000
41.55500 115.000
41.60000 117.000
41.64500 109.000
41.69000 94.000
41.73500 104.000
41.78000 101.000
41.82500 106.000
41.87000 100.000
41.91500 102.000
41.96000 118.000
42.00500 103.000
42.05000 95.000
42.09500 99.000
42.14000 112.000
42.18500 100.000
42.23000 105.000
42.27500 100.000
42.32000 117.000
42.36500 109.000
42.41000 116.000
42.45500 109.000
42.50000 113.000
42.54500 98.000
42.59000 101.000
42.63500 95.000
42.68000 111.000
42.72500 117.000
42.77000 107.000
42.81500 92.000
42.86000 111.000
42.90500 112.000
42.95000 102.000
42.99500 131.000
43.04000 105.000
43.08500 104.000
43.13000 105.000
43.17500 101.000
43.22000 112.000
43.26500 114.000
43.31000 105.000
43.35500 92.000
43.40000 106.000
43.44500 100.000
43.49000 83.000
43.53500 87.000
43.58000 118.000
43.62500 117.000
43.67000 85.000
43.71500 100.000
43.76000 95.000
43.80500 85.000
43.85000 97.000
43.89500 104.000
43.94000 99.000
43.98500 90.000
44.03000 106.000
44.07500 112.000
44.12000 93.000
44.16500 96.000
44.21000 100.000
44.25500 88.000
44.30000 86.000
44.34500 89.000
44.39000 97.000
44.43500 99.000
44.48000 101.000
44.52500 89.000
44.57000 84.000
44.61500 92.000
44.66000 113.000
44.70500 83.000
44.75000 90.000
44.79500 88.000
44.84000 98.000
44.88500 88.000
44.93000 109.000
44.97500 105.000
45.02000 108.000
45.06500 79.000
45.11000 85.000
45.15500 109.000
45.20000 96.000
45.24500 102.000
45.29000 82.000
45.33500 100.000
45.38000 91.000
45.42500 110.000
45.47000 101.000
45.51500 81.000
45.56000 92.000
45.60500 96.000
45.65000 111.000
45.69500 104.000
45.74000 113.000
45.78500 99.000
45.83000 100.000
45.87500 93.000
45.92000 109.000
45.96500 97.000
46.01000 105.000
46.05500 109.000
46.10000 111.000
46.14500 98.000
46.19000 95.000
46.23500 93.000
46.28000 90.000
46.32500 112.000
46.37000 102.000
46.41500 96.000
46.46000 98.000
46.50500 94.000
46.55000 92.000
46.59500 86.000
46.64000 95.000
46.68500 85.000
46.73000 87.000
46.77500 80.000
46.82000 104.000
46.86500 87.000
46.91000 101.000
46.95500 89.000
47.00000 95.000
47.04500 99.000
47.09000 104.000
47.13500 107.000
47.18000 84.000
47.22500 92.000
47.27000 89.000
47.31500 89.000
47.36000 83.000
47.40500 93.000
47.45000 105.000
47.49500 101.000
47.54000 80.000
47.58500 96.000
47.63000 83.000
47.67500 110.000
47.72000 84.000
47.76500 97.000
47.81000 99.000
47.85500 105.000
47.90000 93.000
47.94500 88.000
47.99000 78.000
48.03500 88.000
48.08000 90.000
48.12500 91.000
48.17000 84.000
48.21500 101.000
48.26000 87.000
48.30500 87.000
48.35000 103.000
48.39500 84.000
48.44000 84.000
48.48500 97.000
48.53000 83.000
48.57500 83.000
48.62000 86.000
48.66500 90.000
48.71000 105.000
48.75500 97.000
48.80000 84.000
48.84500 84.000
48.89000 87.000
48.93500 90.000
48.98000 76.000
49.02500 86.000
49.07000 91.000
49.11500 88.000
49.16000 93.000
49.20500 82.000
49.25000 92.000
49.29500 72.000
49.34000 96.000
49.38500 84.000
49.43000 65.000
49.47500 95.000
49.52000 80.000
49.56500 76.000
49.61000 96.000
49.65500 81.000
49.70000 80.000
49.74500 85.000
49.79000 91.000
49.83500 70.000
49.88000 81.000
49.92500 79.000
49.97000 87.000
50.01500 68.000
50.06000 73.000
50.10500 92.000
50.15000 101.000
50.19500 76.000
50.24000 94.000
50.28500 80.000
50.33000 73.000
50.37500 89.000
50.42000 91.000
50.46500 84.000
50.51000 78.000
50.55500 70.000
50.60000 88.000
50.64500 90.000
50.69000 69.000
50.73500 96.000
50.78000 77.000
50.82500 83.000
50.87000 75.000
50.91500 72.000
50.96000 79.000
51.00500 80.000
51.05000 90.000
51.09500 77.000
51.14000 77.000
51.18500 71.000
51.23000 77.000
51.27500 80.000
51.32000 79.000
51.36500 86.000
51.41000 81.000
51.45500 85.000
51.50000 78.000
51.54500 87.000
51.59000 79.000
51.63500 85.000
51.68000 71.000
51.72500 74.000
51.77000 84.000
51.81500 81.000
51.86000 82.000
51.90500 89.000
51.95000 63.000
51.99500 78.000
52.04000 91.000
52.08500 103.000
52.13000 81.000
52.17500 87.000
52.22000 94.000
52.26500 82.000
52.31000 86.000
52.35500 85.000
52.40000 87.000
52.44500 83.000
52.49000 94.000
52.53500 92.000
52.58000 100.000
52.62500 82.000
52.67000 83.000
52.71500 93.000
52.76000 87.000
52.80500 86.000
52.85000 78.000
52.89500 71.000
52.94000 93.000
52.98500 93.000
53.03000 73.000
53.07500 76.000
53.12000 74.000
53.16500 77.000
53.21000 87.000
53.25500 89.000
53.30000 83.000
53.34500 91.000
53.39000 97.000
53.43500 79.000
53.48000 100.000
53.52500 90.000
53.57000 88.000
53.61500 80.000
53.66000 87.000
53.70500 90.000
53.75000 91.000
53.79500 86.000
53.84000 90.000
53.88500 77.000
53.93000 85.000
53.97500 70.000
54.02000 76.000
54.06500 97.000
54.11000 76.000
54.15500 68.000
54.20000 89.000
54.24500 86.000
54.29000 85.000
54.33500 82.000
54.38000 80.000
54.42500 96.000
54.47000 93.000
54.51500 79.000
54.56000 89.000
54.60500 81.000
54.65000 76.000
54.69500 77.000
54.74000 99.000
54.78500 77.000
54.83000 76.000
54.87500 72.000
54.92000 77.000
54.96500 84.000
55.01000 79.000
55.05500 76.000
55.10000 82.000
55.14500 72.000
55.19000 74.000
55.23500 91.000
55.28000 77.000
55.32500 82.000
55.37000 88.000
55.41500 85.000
55.46000 90.000
55.50500 73.000
55.55000 53.000
55.59500 78.000
55.64000 76.000
55.68500 68.000
55.73000 87.000
55.77500 83.000
55.82000 76.000
55.86500 80.000
55.91000 86.000
55.95500 75.000
56.00000 72.000
56.04500 73.000
56.09000 80.000
56.13500 73.000
56.18000 75.000
56.22500 79.000
56.27000 88.000
56.31500 82.000
56.36000 69.000
56.40500 67.000
56.45000 79.000
56.49500 87.000
56.54000 86.000
56.58500 78.000
56.63000 79.000
56.67500 76.000
56.72000 81.000
56.76500 80.000
56.81000 79.000
56.85500 88.000
56.90000 86.000
56.94500 75.000
56.99000 70.000
57.03500 83.000
57.08000 83.000
57.12500 58.000
57.17000 67.000
57.21500 74.000
57.26000 84.000
57.30500 90.000
57.35000 96.000
57.39500 83.000
57.44000 76.000
57.48500 73.000
57.53000 82.000
57.57500 76.000
57.62000 80.000
57.66500 81.000
57.71000 83.000
57.75500 74.000
57.80000 79.000
57.84500 74.000
57.89000 82.000
57.93500 66.000
57.98000 67.000
58.02500 75.000
58.07000 78.000
58.11500 76.000
58.16000 70.000
58.20500 72.000
58.25000 67.000
58.29500 79.000
58.34000 81.000
58.38500 72.000
58.43000 81.000
58.47500 73.000
58.52000 72.000
58.56500 89.000
58.61000 77.000
58.65500 76.000
58.70000 75.000
58.74500 81.000
58.79000 82.000
58.83500 75.000
58.88000 73.000
58.92500 62.000
58.97000 69.000
59.01500 61.000
59.06000 67.000
59.10500 56.000
59.15000 81.000
59.19500 74.000
59.24000 54.000
59.28500 83.000
59.33000 77.000
59.37500 82.000
59.42000 75.000
59.46500 69.000
59.51000 78.000
59.55500 72.000
59.60000 68.000
59.64500 66.000
59.69000 73.000
59.73500 81.000
59.78000 76.000
59.82500 75.000
59.87000 79.000
59.91500 78.000
59.96000 79.000
60.00500 60.000
60.05000 67.000
60.09500 77.000
60.14000 66.000
60.18500 75.000
60.23000 80.000
60.27500 71.000
60.32000 75.000
60.36500 77.000
60.41000 71.000
60.45500 72.000
60.50000 68.000
60.54500 63.000
60.59000 73.000
60.63500 63.000
60.68000 66.000
60.72500 80.000
60.77000 61.000
60.81500 56.000
60.86000 70.000
60.90500 74.000
60.95000 61.000
60.99500 71.000
61.04000 66.000
61.08500 70.000
61.13000 72.000
61.17500 58.000
61.22000 73.000
61.26500 72.000
61.31000 73.000
61.35500 67.000
61.40000 66.000
61.44500 69.000
61.49000 68.000
61.53500 70.000
61.58000 64.000
61.62500 72.000
61.67000 79.000
61.71500 74.000
61.76000 77.000
61.80500 75.000
61.85000 77.000
61.89500 67.000
61.94000 76.000
61.98500 71.000