File: ISoD/xrd_data/HSC010_ranges_combined.xy
2.0 1134.0
2.045 1090.0
2.09 1032.0
2.135 949.0
2.18 915.0
2.225 884.0
2.27 778.0
2.315 776.0
2.36 758.0
2.405 725.0
2.45 643.0
2.495 670.0
2.54 627.0
2.585 585.0
2.63 586.0
2.675 546.0
2.72 536.0
2.765 566.0
2.81 508.0
2.855 503.0
2.9 512.0
2.945 511.0
2.99 489.0
3.035 476.0
3.08 467.0
3.125 449.0
3.17 417.0
3.215 485.0
3.26 441.0
3.305 429.0
3.35 393.0
3.395 403.0
3.44 395.0
3.485 436.0
3.53 441.0
3.575 393.0
3.62 369.0
3.665 407.0
3.71 356.0
3.755 381.0
3.8 377.0
3.845 391.0
3.89 396.0
3.935 392.0
3.98 366.0
4.025 366.0
4.07 385.0
4.115 387.0
4.16 353.0
4.205 381.0
4.25 350.0
4.295 401.0
4.34 385.0
4.385 389.0
4.43 383.0
4.475 376.0
4.52 385.0
4.565 364.0
4.61 384.0
4.655 353.0
4.7 355.0
4.745 353.0
4.79 338.0
4.835 360.0
4.88 361.0
4.925 362.0
4.97 386.0
5.015 360.0
5.06 335.0
5.105 360.0
5.15 351.0
5.195 343.0
5.24 382.0
5.285 371.0
5.33 352.0
5.375 343.0
5.42 354.0
5.465 327.0
5.51 364.0
5.555 345.0
5.6 367.0
5.645 364.0
5.69 359.0
5.735 366.0
5.78 356.0
5.825 381.0
5.87 417.0
5.915 449.0
5.96 455.0
6.005 532.0
6.05 601.0
6.095 790.0
6.14 1038.0
6.185 770.0
6.23 475.0
6.275 392.0
6.32 379.0
6.365 370.0
6.41 359.0
6.455 360.0
6.5 361.0
6.545 372.0
6.59 362.0
6.635 362.0
6.68 350.0
6.725 388.0
6.77 340.0
6.815 355.0
6.86 370.0
6.905 330.0
6.95 391.0
6.995 354.0
7.04 374.0
7.085 391.0
7.13 326.0
7.175 370.0
7.22 351.0
7.265 385.0
7.31 348.0
7.355 369.0
7.4 386.0
7.445 340.0
7.49 335.0
7.535 350.0
7.58 369.0
7.625 358.0
7.67 364.0
7.715 377.0
7.76 356.0
7.805 366.0
7.85 341.0
7.895 347.0
7.94 352.0
7.985 372.0
8.03 367.0
8.075 369.0
8.12 336.0
8.165 357.0
8.21 342.0
8.255 341.0
8.3 363.0
8.345 360.0
8.39 341.0
8.435 364.0
8.48 349.0
8.525 357.0
8.57 364.0
8.615 362.0
8.66 324.0
8.705 355.0
8.75 349.0
8.795 322.0
8.84 361.0
8.885 376.0
8.93 355.0
8.975 369.0
9.02 349.0
9.065 343.0
9.11 375.0
9.155 373.0
9.2 346.0
9.245 338.0
9.29 379.0
9.335 353.0
9.38 351.0
9.425 365.0
9.47 377.0
9.515 373.0
9.56 341.0
9.605 353.0
9.65 331.0
9.695 354.0
9.74 334.0
9.785 348.0
9.83 365.0
9.875 349.0
9.92 375.0
9.965 371.0
10.01 366.0
10.055 370.0
10.1 361.0
10.145 347.0
10.19 355.0
10.235 384.0
10.28 364.0
10.325 375.0
10.37 370.0
10.415 368.0
10.46 364.0
10.505 353.0
10.55 394.0
10.595 388.0
10.64 356.0
10.685 384.0
10.73 386.0
10.775 363.0
10.82 385.0
10.865 362.0
10.91 371.0
10.955 401.0
11.0 362.0
11.045 388.0
11.09 385.0
11.135 390.0
11.18 406.0
11.225 387.0
11.27 384.0
11.315 402.0
11.36 381.0
11.405 396.0
11.45 370.0
11.495 366.0
11.54 415.0
11.585 382.0
11.63 375.0
11.675 392.0
11.72 385.0
11.765 395.0
11.81 413.0
11.855 419.0
11.9 392.0
11.945 469.0
11.99 477.0
12.035 571.0
12.08 635.0
12.125 910.0
12.17 1260.0
12.215 1792.0
12.26 2249.0
12.305 2554.0
12.35 1796.0
12.395 813.0
12.44 625.0
12.485 600.0
12.53 558.0
12.575 552.0
12.62 559.0
12.665 527.0
12.71 500.0
12.755 545.0
12.8 502.0
12.845 515.0
12.89 544.0
12.935 519.0
12.98 517.0
13.025 490.0
13.07 514.0
13.115 486.0
13.16 520.0
13.205 535.0
13.25 548.0
13.295 602.0
13.34 660.0
13.385 719.0
13.43 783.0
13.475 621.0
13.52 514.0
13.565 525.0
13.61 523.0
13.655 530.0
13.7 513.0
13.745 470.0
13.79 444.0
13.835 456.0
13.88 440.0
13.925 440.0
13.97 470.0
14.015 418.0
14.06 438.0
14.105 452.0
14.15 441.0
14.195 444.0
14.24 457.0
14.285 458.0
14.33 423.0
14.375 438.0
14.42 415.0
14.465 422.0
14.51 427.0
14.555 429.0
14.6 441.0
14.645 454.0
14.69 429.0
14.735 405.0
14.78 447.0
14.825 406.0
14.87 422.0
14.915 460.0
14.96 475.0
15.005 446.0
15.05 430.0
15.095 418.0
15.14 446.0
15.185 438.0
15.23 410.0
15.275 405.0
15.32 428.0
15.365 388.0
15.41 439.0
15.455 415.0
15.5 414.0
15.545 405.0
15.59 426.0
15.635 444.0
15.68 434.0
15.725 443.0
15.77 405.0
15.815 395.0
15.86 462.0
15.905 436.0
15.95 414.0
15.995 439.0
16.04 414.0
16.085 434.0
16.13 412.0
16.175 412.0
16.22 445.0
16.265 490.0
16.31 485.0
16.355 456.0
16.4 498.0
16.445 495.0
16.49 519.0
16.535 489.0
16.58 454.0
16.625 435.0
16.67 463.0
16.715 450.0
16.76 449.0
16.805 457.0
16.85 481.0
16.895 482.0
16.94 462.0
16.985 453.0
17.03 465.0
17.075 453.0
17.12 480.0
17.165 464.0
17.21 434.0
17.255 449.0
17.3 475.0
17.345 446.0
17.39 429.0
17.435 466.0
17.48 440.0
17.525 456.0
17.57 472.0
17.615 467.0
17.66 515.0
17.705 448.0
17.75 458.0
17.795 494.0
17.84 467.0
17.885 467.0
17.93 454.0
17.975 485.0
18.02 533.0
18.065 540.0
18.11 564.0
18.155 515.0
18.2 478.0
18.245 471.0
18.29 497.0
18.335 489.0
18.38 499.0
18.425 518.0
18.47 537.0
18.515 546.0
18.56 552.0
18.605 473.0
18.65 476.0
18.695 504.0
18.74 496.0
18.785 521.0
18.83 534.0
18.875 502.0
18.92 490.0
18.965 475.0
19.01 475.0
19.055 502.0
19.1 475.0
19.145 496.0
19.19 499.0
19.235 504.0
19.28 489.0
19.325 543.0
19.37 555.0
19.415 574.0
19.46 595.0
19.505 631.0
19.55 582.0
19.595 586.0
19.64 608.0
19.685 499.0
19.73 511.0
19.775 530.0
19.82 529.0
19.865 511.0
19.91 487.0
19.955 490.0
20.0 520.0
20.045 500.0
20.09 498.0
20.135 517.0
20.18 491.0
20.225 520.0
20.27 518.0
20.315 503.0
20.36 494.0
20.405 523.0
20.45 473.0
20.495 486.0
20.54 489.0
20.585 500.0
20.63 527.0
20.675 529.0
20.72 499.0
20.765 509.0
20.81 510.0
20.855 500.0
20.9 515.0
20.945 506.0
20.99 469.0
21.035 536.0
21.08 504.0
21.125 529.0
21.17 514.0
21.215 520.0
21.26 522.0
21.305 553.0
21.35 498.0
21.395 556.0
21.44 544.0
21.485 514.0
21.53 564.0
21.575 565.0
21.62 581.0
21.665 585.0
21.71 533.0
21.755 535.0
21.8 546.0
21.845 541.0
21.89 529.0
21.935 561.0
21.98 558.0
22.025 571.0
22.07 592.0
22.115 620.0
22.16 582.0
22.205 597.0
22.25 530.0
22.295 539.0
22.34 557.0
22.385 577.0
22.43 528.0
22.475 549.0
22.52 539.0
22.565 530.0
22.61 558.0
22.655 547.0
22.7 524.0
22.745 519.0
22.79 514.0
22.835 567.0
22.88 557.0
22.925 525.0
22.97 542.0
23.015 546.0
23.06 559.0
23.105 548.0
23.15 565.0
23.195 587.0
23.24 565.0
23.285 585.0
23.33 582.0
23.375 568.0
23.42 587.0
23.465 558.0
23.51 585.0
23.555 576.0
23.6 576.0
23.645 578.0
23.69 578.0
23.735 601.0
23.78 567.0
23.825 522.0
23.87 569.0
23.915 549.0
23.96 549.0
24.005 528.0
24.05 547.0
24.095 576.0
24.14 561.0
24.185 531.0
24.23 567.0
24.275 509.0
24.32 555.0
24.365 564.0
24.41 519.0
24.455 591.0
24.5 566.0
24.545 610.0
24.59 550.0
24.635 571.0
24.68 596.0
24.725 657.0
24.77 677.0
24.815 653.0
24.86 618.0
24.905 581.0
24.95 585.0
24.995 585.0
25.04 581.0
25.085 582.0
25.13 641.0
25.175 636.0
25.22 679.0
25.265 638.0
25.31 644.0
25.355 663.0
25.4 623.0
25.445 663.0
25.49 638.0
25.535 660.0
25.58 679.0
25.625 673.0
25.67 717.0
25.715 794.0
25.76 959.0
25.805 952.0
25.85 944.0
25.895 814.0
25.94 767.0
25.985 719.0
26.03 756.0
26.075 734.0
26.12 756.0
26.165 822.0
26.21 875.0
26.255 1002.0
26.3 1113.0
26.345 1151.0
26.39 1030.0
26.435 1036.0
26.48 946.0
26.525 919.0
26.57 954.0
26.615 986.0
26.66 1000.0
26.705 1030.0
26.75 1148.0
26.795 1160.0
26.84 1175.0
26.885 1078.0
26.93 1111.0
26.975 1197.0
27.02 1298.0
27.065 1324.0
27.11 1445.0
27.155 1524.0
27.2 1517.0
27.245 1371.0
27.29 1412.0
27.335 1421.0
27.38 1331.0
27.425 1385.0
27.47 1374.0
27.515 1404.0
27.56 1433.0
27.605 1420.0
27.65 1459.0
27.695 1565.0
27.74 1555.0
27.785 1676.0
27.83 1663.0
27.875 1436.0
27.92 1325.0
27.965 1137.0
28.01 1001.0
28.055 956.0
28.1 879.0
28.145 846.0
28.19 813.0
28.235 779.0
28.28 754.0
28.325 705.0
28.37 724.0
28.415 678.0
28.46 630.0
28.505 638.0
28.55 611.0
28.595 603.0
28.64 596.0
28.685 601.0
28.73 575.0
28.775 620.0
28.82 602.0
28.865 601.0
28.91 579.0
28.955 575.0
29.0 558.0
29.045 570.0
29.09 537.0
29.135 500.0
29.18 528.0
29.225 557.0
29.27 508.0
29.315 520.0
29.36 502.0
29.405 507.0
29.45 490.0
29.495 513.0
29.54 507.0
29.585 507.0
29.63 495.0
29.675 478.0
29.72 466.0
29.765 469.0
29.81 473.0
29.855 477.0
29.9 500.0
29.945 473.0
29.99 516.0
30.035 540.0
30.08 529.0
30.125 509.0
30.17 477.0
30.215 499.0
30.26 443.0
30.305 493.0
30.35 490.0
30.395 425.0
30.44 454.0
30.485 444.0
30.53 429.0
30.575 460.0
30.62 461.0
30.665 482.0
30.71 499.0
30.755 493.0
30.8 501.0
30.845 503.0
30.89 461.0
30.935 491.0
30.98 486.0
31.025 491.0
31.07 579.0
31.115 632.0
31.16 546.0
31.205 453.0
31.25 447.0
31.295 445.0
31.34 422.0
31.385 440.0
31.43 406.0
31.475 440.0
31.52 404.0
31.565 419.0
31.61 435.0
31.655 417.0
31.7 423.0
31.745 444.0
31.79 360.0
31.835 403.0
31.88 399.0
31.925 381.0
31.97 405.0
32.015 380.0
32.06 388.0
32.105 385.0
32.15 394.0
32.195 383.0
32.24 354.0
32.285 375.0
32.33 368.0
32.375 339.0
32.42 367.0
32.465 350.0
32.51 348.0
32.555 351.0
32.6 360.0
32.645 346.0
32.69 335.0
32.735 371.0
32.78 322.0
32.825 351.0
32.87 331.0
32.915 377.0
32.96 348.0
33.005 339.0
33.05 348.0
33.095 345.0
33.14 324.0
33.185 343.0
33.23 344.0
33.275 354.0
33.32 351.0
33.365 333.0
33.41 332.0
33.455 338.0
33.5 315.0
33.545 347.0
33.59 334.0
33.635 355.0
33.68 355.0
33.725 350.0
33.77 359.0
33.815 343.0
33.86 360.0
33.905 375.0
33.95 360.0
33.995 343.0
34.04 344.0
34.085 325.0
34.13 333.0
34.175 319.0
34.22 327.0
34.265 310.0
34.31 310.0
34.355 294.0
34.4 321.0
34.445 313.0
34.49 327.0
34.535 304.0
34.58 312.0
34.625 311.0
34.67 333.0
34.715 291.0
34.76 301.0
34.805 285.0
34.85 294.0
34.895 300.0
34.94 321.0
34.985 289.0
35.03 304.0
35.075 312.0
35.12 290.0
35.165 309.0
35.21 255.0
35.255 308.0
35.3 295.0
35.345 282.0
35.39 283.0
35.435 310.0
35.48 274.0
35.525 287.0
35.57 272.0
35.615 295.0
35.66 292.0
35.705 265.0
35.75 256.0
35.795 264.0
35.84 289.0
35.885 265.0
35.93 256.0
35.975 287.0
36.02 254.0
36.065 256.0
36.11 272.0
36.155 272.0
36.2 259.0
36.245 268.0
36.29 272.0
36.335 245.0
36.38 252.0
36.425 274.0
36.47 247.0
36.515 257.0
36.56 261.0
36.605 254.0
36.65 222.0
36.695 268.0
36.74 277.0
36.785 236.0
36.83 256.0
36.875 235.0
36.92 267.0
36.965 252.0
37.01 265.0
37.055 255.0
37.1 253.0
37.145 258.0
37.19 270.0
37.235 255.0
37.28 247.0
37.325 243.0
37.37 237.0
37.415 261.0
37.46 260.0
37.505 278.0
37.55 276.0
37.595 264.0
37.64 269.0
37.685 242.0
37.73 272.0
37.775 240.0
37.82 222.0
37.865 220.0
37.91 230.0
37.955 274.0
38.0 268.0
38.045 243.0
38.09 262.0
38.135 236.0
38.18 233.0
38.225 237.0
38.27 244.0
38.315 228.0
38.36 252.0
38.405 274.0
38.45 243.0
38.495 241.0
38.54 248.0
38.585 248.0
38.63 226.0
38.675 248.0
38.72 245.0
38.765 248.0
38.81 237.0
38.855 257.0
38.9 227.0
38.945 250.0
38.99 227.0
39.035 231.0
39.08 230.0
39.125 234.0
39.17 248.0
39.215 228.0
39.26 239.0
39.305 219.0
39.35 227.0
39.395 247.0
39.44 229.0
39.485 230.0
39.53 244.0
39.575 229.0
39.62 225.0
39.665 237.0
39.71 221.0
39.755 257.0
39.8 244.0
39.845 240.0
39.89 212.0
39.935 280.0
39.98 250.0
40.025 235.0
40.07 226.0
40.115 220.0
40.16 233.0
40.205 253.0
40.25 264.0
40.295 266.0
40.34 252.0
40.385 239.0
40.43 245.0
40.475 250.0
40.52 262.0
40.565 247.0
40.61 250.0
40.655 245.0
40.7 235.0
40.745 259.0
40.79 254.0
40.835 240.0
40.88 259.0
40.925 242.0
40.97 240.0
41.015 245.0
41.06 248.0
41.105 239.0
41.15 292.0
41.195 249.0
41.24 260.0
41.285 258.0
41.33 245.0
41.375 239.0
41.42 247.0
41.465 223.0
41.51 204.0
41.555 229.0
41.6 252.0
41.645 214.0
41.69 238.0
41.735 218.0
41.78 234.0
41.825 222.0
41.87 246.0
41.915 246.0
41.96 253.0
42.005 248.0
42.05 236.0
42.095 227.0
42.14 249.0
42.185 214.0
42.23 240.0
42.275 246.0
42.32 258.0
42.365 225.0
42.41 238.0
42.455 218.0
42.5 231.0
42.545 246.0
42.59 252.0
42.635 234.0
42.68 223.0
42.725 281.0
42.77 247.0
42.815 243.0
42.86 244.0
42.905 242.0
42.95 216.0
42.995 225.0
43.04 248.0
43.085 238.0
43.13 241.0
43.175 243.0
43.22 242.0
43.265 215.0
43.31 254.0
43.355 221.0
43.4 226.0
43.445 219.0
43.49 229.0
43.535 253.0
43.58 203.0
43.625 237.0
43.67 224.0
43.715 230.0
43.76 227.0
43.805 230.0
43.85 227.0
43.895 219.0
43.94 240.0
43.985 236.0
44.03 239.0
44.075 259.0
44.12 235.0
44.165 237.0
44.21 265.0
44.255 258.0
44.3 217.0
44.345 249.0
44.39 244.0
44.435 244.0
44.48 257.0
44.525 213.0
44.57 257.0
44.615 254.0
44.66 234.0
44.705 228.0
44.75 235.0
44.795 253.0
44.84 237.0
44.885 236.0
44.93 230.0
44.975 223.0
45.02 242.0
45.065 234.0
45.11 237.0
45.155 219.0
45.2 208.0
45.245 234.0
45.29 244.0
45.335 233.0
45.38 197.0
45.425 229.0
45.47 219.0
45.515 225.0
45.56 228.0
45.605 191.0
45.65 228.0
45.695 207.0
45.74 236.0
45.785 241.0
45.83 222.0
45.875 218.0
45.92 227.0
45.965 259.0
46.01 234.0
46.055 218.0
46.1 201.0
46.145 240.0
46.19 259.0
46.235 239.0
46.28 220.0
46.325 223.0
46.37 221.0
46.415 203.0
46.46 236.0
46.505 202.0
46.55 224.0
46.595 226.0
46.64 221.0
46.685 226.0
46.73 237.0
46.775 227.0
46.82 242.0
46.865 226.0
46.91 231.0
46.955 254.0
47.0 213.0
47.045 242.0
47.09 216.0
47.135 208.0
47.18 223.0
47.225 222.0
47.27 209.0
47.315 182.0
47.36 230.0
47.405 217.0
47.45 190.0
47.495 233.0
47.54 217.0
47.585 220.0
47.63 205.0
47.675 196.0
47.72 201.0
47.765 223.0
47.81 201.0
47.855 230.0
47.9 199.0
47.945 224.0
47.99 195.0
48.035 194.0
48.08 199.0
48.125 189.0
48.17 222.0
48.215 203.0
48.26 193.0
48.305 195.0
48.35 203.0
48.395 196.0
48.44 191.0
48.485 181.0
48.53 197.0
48.575 214.0
48.62 184.0
48.665 220.0
48.71 196.0
48.755 227.0
48.8 180.0
48.845 191.0
48.89 202.0
48.935 181.0
48.98 182.0
49.025 215.0
49.07 202.0
49.115 208.0
49.16 203.0
49.205 188.0
49.25 212.0
49.295 209.0
49.34 209.0
49.385 199.0
49.43 204.0
49.475 205.0
49.52 210.0
49.565 196.0
49.61 211.0
49.655 193.0
49.7 204.0
49.745 188.0
49.79 177.0
49.835 215.0
49.88 198.0
49.925 182.0
49.97 206.0
50.015 199.0
50.06 219.0
50.105 206.0
50.15 192.0
50.195 208.0
50.24 216.0
50.285 196.0
50.33 196.0
50.375 198.0
50.42 196.0
50.465 192.0
50.51 221.0
50.555 181.0
50.6 195.0
50.645 208.0
50.69 193.0
50.735 194.0
50.78 197.0
50.825 196.0
50.87 168.0
50.915 201.0
50.96 190.0
51.005 205.0
51.05 194.0
51.095 181.0
51.14 181.0
51.185 197.0
51.23 208.0
51.275 170.0
51.32 198.0
51.365 194.0
51.41 203.0
51.455 182.0
51.5 203.0
51.545 190.0
51.59 165.0
51.635 183.0
51.68 206.0
51.725 202.0
51.77 178.0
51.815 216.0
51.86 198.0
51.905 203.0
51.95 173.0
51.995 208.0
52.04 213.0
52.085 208.0
52.13 188.0
52.175 203.0
52.22 191.0
52.265 193.0
52.31 206.0
52.355 198.0
52.4 176.0
52.445 183.0
52.49 191.0
52.535 193.0
52.58 166.0
52.625 168.0
52.67 170.0
52.715 191.0
52.76 190.0
52.805 187.0
52.85 186.0
52.895 180.0
52.94 184.0
52.985 178.0
53.03 208.0
53.075 203.0
53.12 196.0
53.165 188.0
53.21 185.0
53.255 207.0
53.3 193.0
53.345 217.0
53.39 206.0
53.435 213.0
53.48 187.0
53.525 200.0
53.57 202.0
53.615 205.0
53.66 194.0
53.705 200.0
53.75 188.0
53.795 194.0
53.84 186.0
53.885 197.0
53.93 197.0
53.975 179.0
54.02 183.0
54.065 188.0
54.11 208.0
54.155 187.0
54.2 200.0
54.245 196.0
54.29 183.0
54.335 205.0
54.38 191.0
54.425 190.0
54.47 184.0
54.515 196.0
54.56 212.0
54.605 197.0
54.65 193.0
54.695 191.0
54.74 209.0
54.785 208.0
54.83 215.0
54.875 188.0
54.92 188.0
54.965 199.0
55.01 206.0
55.055 195.0
55.1 187.0
55.145 189.0
55.19 189.0
55.235 198.0
55.28 189.0
55.325 182.0
55.37 205.0
55.415 192.0
55.46 211.0
55.505 182.0
55.55 203.0
55.595 208.0
55.64 182.0
55.685 187.0
55.73 200.0
55.775 197.0
55.82 186.0
55.865 175.0
55.91 198.0
55.955 217.0
56.0 184.0
56.045 184.0
56.09 210.0
56.135 175.0
56.18 209.0
56.225 198.0
56.27 187.0
56.315 195.0
56.36 202.0
56.405 182.0
56.45 198.0
56.495 196.0
56.54 197.0
56.585 213.0
56.63 189.0
56.675 214.0
56.72 188.0
56.765 187.0
56.81 192.0
56.855 189.0
56.9 188.0
56.945 206.0
56.99 198.0
57.035 205.0
57.08 191.0
57.125 199.0
57.17 189.0
57.215 173.0
57.26 182.0
57.305 190.0
57.35 188.0
57.395 192.0
57.44 183.0
57.485 204.0
57.53 188.0
57.575 179.0
57.62 179.0
57.665 170.0
57.71 174.0
57.755 198.0
57.8 176.0
57.845 191.0
57.89 176.0
57.935 188.0
57.98 192.0
58.025 178.0
58.07 160.0
58.115 171.0
58.16 177.0
58.205 170.0
58.25 165.0
58.295 170.0
58.34 180.0
58.385 165.0
58.43 181.0
58.475 170.0
58.52 196.0
58.565 160.0
58.61 171.0
58.655 179.0
58.7 151.0
58.745 156.0
58.79 172.0
58.835 158.0
58.88 166.0
58.925 159.0
58.97 174.0
59.015 183.0
59.06 163.0
59.105 179.0
59.15 164.0
59.195 175.0
59.24 157.0
59.285 157.0
59.33 164.0
59.375 186.0
59.42 169.0
59.465 160.0
59.51 182.0
59.555 174.0
59.6 156.0
59.645 154.0
59.69 164.0
59.735 169.0
59.78 151.0
59.825 163.0
59.87 178.0
59.915 179.0
59.96 182.0
60.005 148.0
60.05 152.0
60.095 176.0
60.14 171.0
60.185 165.0
60.23 158.0
60.275 182.0
60.32 165.0
60.365 149.0
60.41 159.0
60.455 156.0
60.5 155.0
60.545 144.0
60.59 175.0
60.635 146.0
60.68 163.0
60.725 171.0
60.77 163.0
60.815 160.0
60.86 150.0
60.905 175.0
60.95 163.0
60.995 160.0
61.04 162.0
61.085 146.0
61.13 168.0
61.175 154.0
61.22 151.0
61.265 157.0
61.31 158.0
61.355 162.0
61.4 143.0
61.445 153.0
61.49 152.0
61.535 177.0
61.58 154.0
61.625 150.0
61.67 156.0
61.715 150.0
61.76 149.0
61.805 177.0
61.85 172.0
61.895 146.0
61.94 151.0
61.985 169.0