File: ISoD/xrd_data/HSC086.xy
2.00000 4.000
2.04500 2.000
2.09000 2.000
2.13500 6.000
2.18000 3.000
2.22500 5.000
2.27000 6.000
2.31500 6.000
2.36000 4.000
2.40500 5.000
2.45000 6.000
2.49500 6.000
2.54000 5.000
2.58500 3.000
2.63000 1.000
2.67500 5.000
2.72000 5.000
2.76500 4.000
2.81000 4.000
2.85500 6.000
2.90000 7.000
2.94500 6.000
2.99000 10.000
3.03500 4.000
3.08000 7.000
3.12500 7.000
3.17000 16.000
3.21500 38.000
3.26000 153.000
3.30500 366.000
3.35000 531.000
3.39500 501.000
3.44000 519.000
3.48500 476.000
3.53000 455.000
3.57500 489.000
3.62000 487.000
3.66500 459.000
3.71000 469.000
3.75500 474.000
3.80000 409.000
3.84500 453.000
3.89000 440.000
3.93500 462.000
3.98000 424.000
4.02500 433.000
4.07000 420.000
4.11500 431.000
4.16000 411.000
4.20500 404.000
4.25000 411.000
4.29500 389.000
4.34000 410.000
4.38500 406.000
4.43000 390.000
4.47500 398.000
4.52000 384.000
4.56500 394.000
4.61000 404.000
4.65500 394.000
4.70000 409.000
4.74500 405.000
4.79000 417.000
4.83500 467.000
4.88000 385.000
4.92500 420.000
4.97000 417.000
5.01500 422.000
5.06000 418.000
5.10500 383.000
5.15000 429.000
5.19500 400.000
5.24000 433.000
5.28500 420.000
5.33000 443.000
5.37500 440.000
5.42000 425.000
5.46500 466.000
5.51000 500.000
5.55500 491.000
5.60000 519.000
5.64500 486.000
5.69000 542.000
5.73500 586.000
5.78000 609.000
5.82500 681.000
5.87000 702.000
5.91500 839.000
5.96000 873.000
6.00500 973.000
6.05000 1074.000
6.09500 1198.000
6.14000 1297.000
6.18500 1376.000
6.23000 1455.000
6.27500 1387.000
6.32000 1244.000
6.36500 1104.000
6.41000 962.000
6.45500 820.000
6.50000 696.000
6.54500 621.000
6.59000 537.000
6.63500 566.000
6.68000 526.000
6.72500 503.000
6.77000 501.000
6.81500 504.000
6.86000 517.000
6.90500 470.000
6.95000 475.000
6.99500 446.000
7.04000 469.000
7.08500 473.000
7.13000 432.000
7.17500 479.000
7.22000 457.000
7.26500 433.000
7.31000 436.000
7.35500 446.000
7.40000 468.000
7.44500 452.000
7.49000 464.000
7.53500 458.000
7.58000 455.000
7.62500 449.000
7.67000 460.000
7.71500 478.000
7.76000 457.000
7.80500 446.000
7.85000 477.000
7.89500 491.000
7.94000 510.000
7.98500 490.000
8.03000 485.000
8.07500 510.000
8.12000 522.000
8.16500 533.000
8.21000 521.000
8.25500 550.000
8.30000 565.000
8.34500 573.000
8.39000 606.000
8.43500 654.000
8.48000 642.000
8.52500 680.000
8.57000 739.000
8.61500 761.000
8.66000 766.000
8.70500 763.000
8.75000 772.000
8.79500 758.000
8.84000 752.000
8.88500 741.000
8.93000 728.000
8.97500 663.000
9.02000 633.000
9.06500 577.000
9.11000 588.000
9.15500 558.000
9.20000 558.000
9.24500 538.000
9.29000 559.000
9.33500 584.000
9.38000 551.000
9.42500 511.000
9.47000 551.000
9.51500 598.000
9.56000 630.000
9.60500 608.000
9.65000 632.000
9.69500 734.000
9.74000 739.000
9.78500 793.000
9.83000 802.000
9.87500 858.000
9.92000 891.000
9.96500 998.000
10.01000 1009.000
10.05500 1079.000
10.10000 1030.000
10.14500 1117.000
10.19000 1143.000
10.23500 1165.000
10.28000 1181.000
10.32500 1165.000
10.37000 1117.000
10.41500 1125.000
10.46000 1187.000
10.50500 1021.000
10.55000 966.000
10.59500 926.000
10.64000 859.000
10.68500 823.000
10.73000 793.000
10.77500 746.000
10.82000 737.000
10.86500 731.000
10.91000 682.000
10.95500 739.000
11.00000 725.000
11.04500 697.000
11.09000 576.000
11.13500 565.000
11.18000 567.000
11.22500 529.000
11.27000 514.000
11.31500 527.000
11.36000 520.000
11.40500 517.000
11.45000 539.000
11.49500 517.000
11.54000 507.000
11.58500 531.000
11.63000 493.000
11.67500 468.000
11.72000 498.000
11.76500 492.000
11.81000 499.000
11.85500 500.000
11.90000 518.000
11.94500 479.000
11.99000 500.000
12.03500 515.000
12.08000 507.000
12.12500 522.000
12.17000 501.000
12.21500 505.000
12.26000 535.000
12.30500 481.000
12.35000 523.000
12.39500 519.000
12.44000 518.000
12.48500 569.000
12.53000 533.000
12.57500 525.000
12.62000 521.000
12.66500 505.000
12.71000 558.000
12.75500 526.000
12.80000 518.000
12.84500 528.000
12.89000 560.000
12.93500 524.000
12.98000 535.000
13.02500 530.000
13.07000 515.000
13.11500 486.000
13.16000 499.000
13.20500 493.000
13.25000 493.000
13.29500 488.000
13.34000 473.000
13.38500 502.000
13.43000 495.000
13.47500 489.000
13.52000 488.000
13.56500 509.000
13.61000 513.000
13.65500 477.000
13.70000 497.000
13.74500 514.000
13.79000 488.000
13.83500 492.000
13.88000 517.000
13.92500 484.000
13.97000 505.000
14.01500 515.000
14.06000 487.000
14.10500 492.000
14.15000 516.000
14.19500 501.000
14.24000 489.000
14.28500 528.000
14.33000 495.000
14.37500 493.000
14.42000 460.000
14.46500 479.000
14.51000 480.000
14.55500 506.000
14.60000 483.000
14.64500 481.000
14.69000 514.000
14.73500 503.000
14.78000 498.000
14.82500 514.000
14.87000 514.000
14.91500 525.000
14.96000 530.000
15.00500 524.000
15.05000 514.000
15.09500 519.000
15.14000 502.000
15.18500 512.000
15.23000 509.000
15.27500 517.000
15.32000 506.000
15.36500 522.000
15.41000 524.000
15.45500 476.000
15.50000 516.000
15.54500 537.000
15.59000 507.000
15.63500 514.000
15.68000 492.000
15.72500 554.000
15.77000 488.000
15.81500 481.000
15.86000 512.000
15.90500 516.000
15.95000 489.000
15.99500 514.000
16.04000 513.000
16.08500 573.000
16.13000 514.000
16.17500 556.000
16.22000 561.000
16.26500 534.000
16.31000 520.000
16.35500 542.000
16.40000 550.000
16.44500 536.000
16.49000 503.000
16.53500 540.000
16.58000 544.000
16.62500 536.000
16.67000 542.000
16.71500 525.000
16.76000 551.000
16.80500 545.000
16.85000 539.000
16.89500 574.000
16.94000 521.000
16.98500 548.000
17.03000 557.000
17.07500 524.000
17.12000 556.000
17.16500 542.000
17.21000 563.000
17.25500 606.000
17.30000 612.000
17.34500 563.000
17.39000 612.000
17.43500 565.000
17.48000 626.000
17.52500 596.000
17.57000 633.000
17.61500 588.000
17.66000 622.000
17.70500 636.000
17.75000 622.000
17.79500 615.000
17.84000 669.000
17.88500 659.000
17.93000 634.000
17.97500 686.000
18.02000 650.000
18.06500 657.000
18.11000 695.000
18.15500 741.000
18.20000 714.000
18.24500 739.000
18.29000 736.000
18.33500 704.000
18.38000 769.000
18.42500 751.000
18.47000 847.000
18.51500 869.000
18.56000 924.000
18.60500 890.000
18.65000 979.000
18.69500 1002.000
18.74000 1117.000
18.78500 1107.000
18.83000 1096.000
18.87500 1079.000
18.92000 1048.000
18.96500 1078.000
19.01000 1050.000
19.05500 1014.000
19.10000 974.000
19.14500 928.000
19.19000 944.000
19.23500 936.000
19.28000 868.000
19.32500 806.000
19.37000 779.000
19.41500 727.000
19.46000 746.000
19.50500 682.000
19.55000 700.000
19.59500 666.000
19.64000 636.000
19.68500 634.000
19.73000 633.000
19.77500 615.000
19.82000 608.000
19.86500 577.000
19.91000 599.000
19.95500 600.000
20.00000 562.000
20.04500 594.000
20.09000 633.000
20.13500 526.000
20.18000 636.000
20.22500 564.000
20.27000 580.000
20.31500 579.000
20.36000 592.000
20.40500 607.000
20.45000 564.000
20.49500 576.000
20.54000 555.000
20.58500 562.000
20.63000 557.000
20.67500 567.000
20.72000 593.000
20.76500 555.000
20.81000 615.000
20.85500 564.000
20.90000 552.000
20.94500 551.000
20.99000 572.000
21.03500 602.000
21.08000 571.000
21.12500 590.000
21.17000 577.000
21.21500 546.000
21.26000 570.000
21.30500 566.000
21.35000 592.000
21.39500 560.000
21.44000 555.000
21.48500 567.000
21.53000 563.000
21.57500 607.000
21.62000 558.000
21.66500 601.000
21.71000 586.000
21.75500 565.000
21.80000 548.000
21.84500 569.000
21.89000 595.000
21.93500 546.000
21.98000 587.000
22.02500 547.000
22.07000 594.000
22.11500 590.000
22.16000 581.000
22.20500 577.000
22.25000 576.000
22.29500 582.000
22.34000 575.000
22.38500 593.000
22.43000 581.000
22.47500 582.000
22.52000 582.000
22.56500 562.000
22.61000 598.000
22.65500 580.000
22.70000 556.000
22.74500 563.000
22.79000 558.000
22.83500 608.000
22.88000 589.000
22.92500 595.000
22.97000 556.000
23.01500 557.000
23.06000 563.000
23.10500 586.000
23.15000 631.000
23.19500 607.000
23.24000 614.000
23.28500 570.000
23.33000 609.000
23.37500 623.000
23.42000 609.000
23.46500 644.000
23.51000 638.000
23.55500 599.000
23.60000 603.000
23.64500 620.000
23.69000 617.000
23.73500 645.000
23.78000 572.000
23.82500 617.000
23.87000 650.000
23.91500 609.000
23.96000 608.000
24.00500 615.000
24.05000 604.000
24.09500 669.000
24.14000 634.000
24.18500 624.000
24.23000 617.000
24.27500 641.000
24.32000 677.000
24.36500 632.000
24.41000 683.000
24.45500 733.000
24.50000 758.000
24.54500 782.000
24.59000 786.000
24.63500 760.000
24.68000 823.000
24.72500 804.000
24.77000 840.000
24.81500 908.000
24.86000 904.000
24.90500 977.000
24.95000 961.000
24.99500 1014.000
25.04000 1034.000
25.08500 1104.000
25.13000 1126.000
25.17500 1070.000
25.22000 1146.000
25.26500 1178.000
25.31000 1148.000
25.35500 1135.000
25.40000 1153.000
25.44500 1197.000
25.49000 1218.000
25.53500 1202.000
25.58000 1175.000
25.62500 1240.000
25.67000 1221.000
25.71500 1207.000
25.76000 1173.000
25.80500 1218.000
25.85000 1195.000
25.89500 1176.000
25.94000 1208.000
25.98500 1172.000
26.03000 1165.000
26.07500 1153.000
26.12000 1154.000
26.16500 1150.000
26.21000 1111.000
26.25500 1109.000
26.30000 1082.000
26.34500 1112.000
26.39000 1105.000
26.43500 1058.000
26.48000 1030.000
26.52500 1118.000
26.57000 1095.000
26.61500 1125.000
26.66000 1114.000
26.70500 1036.000
26.75000 1043.000
26.79500 1051.000
26.84000 1086.000
26.88500 1104.000
26.93000 1040.000
26.97500 1049.000
27.02000 1082.000
27.06500 1071.000
27.11000 1103.000
27.15500 1156.000
27.20000 1153.000
27.24500 1239.000
27.29000 1190.000
27.33500 1273.000
27.38000 1290.000
27.42500 1325.000
27.47000 1408.000
27.51500 1428.000
27.56000 1613.000
27.60500 1688.000
27.65000 1680.000
27.69500 1828.000
27.74000 1886.000
27.78500 1927.000
27.83000 1961.000
27.87500 1931.000
27.92000 1965.000
27.96500 1993.000
28.01000 2051.000
28.05500 2018.000
28.10000 2061.000
28.14500 1899.000
28.19000 1673.000
28.23500 1600.000
28.28000 1530.000
28.32500 1417.000
28.37000 1349.000
28.41500 1231.000
28.46000 1222.000
28.50500 1159.000
28.55000 1048.000
28.59500 1018.000
28.64000 961.000
28.68500 951.000
28.73000 935.000
28.77500 901.000
28.82000 874.000
28.86500 845.000
28.91000 851.000
28.95500 794.000
29.00000 742.000
29.04500 803.000
29.09000 815.000
29.13500 734.000
29.18000 734.000
29.22500 702.000
29.27000 696.000
29.31500 698.000
29.36000 709.000
29.40500 699.000
29.45000 706.000
29.49500 730.000
29.54000 669.000
29.58500 720.000
29.63000 695.000
29.67500 671.000
29.72000 669.000
29.76500 625.000
29.81000 606.000
29.85500 649.000
29.90000 678.000
29.94500 614.000
29.99000 650.000
30.03500 671.000
30.08000 606.000
30.12500 619.000
30.17000 625.000
30.21500 628.000
30.26000 620.000
30.30500 603.000
30.35000 626.000
30.39500 623.000
30.44000 633.000
30.48500 600.000
30.53000 622.000
30.57500 588.000
30.62000 573.000
30.66500 576.000
30.71000 578.000
30.75500 582.000
30.80000 571.000
30.84500 562.000
30.89000 527.000
30.93500 571.000
30.98000 576.000
31.02500 532.000
31.07000 572.000
31.11500 506.000
31.16000 520.000
31.20500 517.000
31.25000 528.000
31.29500 501.000
31.34000 528.000
31.38500 538.000
31.43000 523.000
31.47500 535.000
31.52000 534.000
31.56500 513.000
31.61000 510.000
31.65500 510.000
31.70000 505.000
31.74500 564.000
31.79000 498.000
31.83500 524.000
31.88000 504.000
31.92500 500.000
31.97000 523.000
32.01500 533.000
32.06000 512.000
32.10500 487.000
32.15000 521.000
32.19500 496.000
32.24000 542.000
32.28500 529.000
32.33000 456.000
32.37500 490.000
32.42000 521.000
32.46500 477.000
32.51000 532.000
32.55500 485.000
32.60000 537.000
32.64500 525.000
32.69000 519.000
32.73500 484.000
32.78000 484.000
32.82500 473.000
32.87000 507.000
32.91500 445.000
32.96000 488.000
33.00500 452.000
33.05000 480.000
33.09500 469.000
33.14000 460.000
33.18500 472.000
33.23000 472.000
33.27500 451.000
33.32000 441.000
33.36500 458.000
33.41000 429.000
33.45500 439.000
33.50000 402.000
33.54500 484.000
33.59000 455.000
33.63500 476.000
33.68000 446.000
33.72500 443.000
33.77000 511.000
33.81500 425.000
33.86000 432.000
33.90500 427.000
33.95000 437.000
33.99500 431.000
34.04000 404.000
34.08500 431.000
34.13000 403.000
34.17500 428.000
34.22000 408.000
34.26500 397.000
34.31000 426.000
34.35500 410.000
34.40000 411.000
34.44500 411.000
34.49000 416.000
34.53500 412.000
34.58000 403.000
34.62500 410.000
34.67000 402.000
34.71500 398.000
34.76000 390.000
34.80500 413.000
34.85000 400.000
34.89500 406.000
34.94000 405.000
34.98500 395.000
35.03000 393.000
35.07500 401.000
35.12000 406.000
35.16500 415.000
35.21000 401.000
35.25500 387.000
35.30000 399.000
35.34500 416.000
35.39000 439.000
35.43500 445.000
35.48000 398.000
35.52500 455.000
35.57000 473.000
35.61500 426.000
35.66000 455.000
35.70500 463.000
35.75000 469.000
35.79500 438.000
35.84000 470.000
35.88500 474.000
35.93000 475.000
35.97500 446.000
36.02000 455.000
36.06500 430.000
36.11000 426.000
36.15500 422.000
36.20000 443.000
36.24500 433.000
36.29000 447.000
36.33500 431.000
36.38000 432.000
36.42500 414.000
36.47000 437.000
36.51500 417.000
36.56000 414.000
36.60500 418.000
36.65000 433.000
36.69500 424.000
36.74000 443.000
36.78500 439.000
36.83000 393.000
36.87500 416.000
36.92000 456.000
36.96500 417.000
37.01000 457.000
37.05500 445.000
37.10000 426.000
37.14500 386.000
37.19000 414.000
37.23500 423.000
37.28000 407.000
37.32500 381.000
37.37000 397.000
37.41500 389.000
37.46000 411.000
37.50500 400.000
37.55000 420.000
37.59500 402.000
37.64000 403.000
37.68500 411.000
37.73000 377.000
37.77500 377.000
37.82000 372.000
37.86500 434.000
37.91000 389.000
37.95500 386.000
38.00000 383.000
38.04500 391.000
38.09000 370.000
38.13500 368.000
38.18000 400.000
38.22500 388.000
38.27000 358.000
38.31500 370.000
38.36000 377.000
38.40500 360.000
38.45000 357.000
38.49500 401.000
38.54000 375.000
38.58500 382.000
38.63000 398.000
38.67500 369.000
38.72000 388.000
38.76500 363.000
38.81000 375.000
38.85500 383.000
38.90000 386.000
38.94500 386.000
38.99000 400.000
39.03500 379.000
39.08000 386.000
39.12500 382.000
39.17000 343.000
39.21500 367.000
39.26000 363.000
39.30500 336.000
39.35000 367.000
39.39500 373.000
39.44000 364.000
39.48500 323.000
39.53000 344.000
39.57500 373.000
39.62000 341.000
39.66500 351.000
39.71000 315.000
39.75500 340.000
39.80000 317.000
39.84500 326.000
39.89000 331.000
39.93500 343.000
39.98000 319.000
40.02500 319.000
40.07000 337.000
40.11500 289.000
40.16000 286.000
40.20500 302.000
40.25000 317.000
40.29500 329.000
40.34000 322.000
40.38500 295.000
40.43000 298.000
40.47500 322.000
40.52000 315.000
40.56500 330.000
40.61000 293.000
40.65500 305.000
40.70000 321.000
40.74500 299.000
40.79000 324.000
40.83500 298.000
40.88000 292.000
40.92500 325.000
40.97000 309.000
41.01500 321.000
41.06000 310.000
41.10500 297.000
41.15000 307.000
41.19500 305.000
41.24000 289.000
41.28500 307.000
41.33000 301.000
41.37500 334.000
41.42000 291.000
41.46500 297.000
41.51000 308.000
41.55500 285.000
41.60000 276.000
41.64500 292.000
41.69000 278.000
41.73500 316.000
41.78000 286.000
41.82500 299.000
41.87000 309.000
41.91500 312.000
41.96000 292.000
42.00500 306.000
42.05000 314.000
42.09500 301.000
42.14000 309.000
42.18500 283.000
42.23000 323.000
42.27500 318.000
42.32000 298.000
42.36500 285.000
42.41000 317.000
42.45500 315.000
42.50000 304.000
42.54500 262.000
42.59000 286.000
42.63500 292.000
42.68000 319.000
42.72500 323.000
42.77000 291.000
42.81500 293.000
42.86000 315.000
42.90500 314.000
42.95000 316.000
42.99500 300.000
43.04000 283.000
43.08500 266.000
43.13000 319.000
43.17500 292.000
43.22000 295.000
43.26500 278.000
43.31000 282.000
43.35500 280.000
43.40000 303.000
43.44500 295.000
43.49000 265.000
43.53500 258.000
43.58000 265.000
43.62500 260.000
43.67000 280.000
43.71500 284.000
43.76000 265.000
43.80500 276.000
43.85000 253.000
43.89500 271.000
43.94000 265.000
43.98500 269.000
44.03000 272.000
44.07500 268.000
44.12000 259.000
44.16500 298.000
44.21000 286.000
44.25500 279.000
44.30000 302.000
44.34500 272.000
44.39000 245.000
44.43500 269.000
44.48000 284.000
44.52500 293.000
44.57000 285.000
44.61500 260.000
44.66000 291.000
44.70500 276.000
44.75000 246.000
44.79500 310.000
44.84000 282.000
44.88500 298.000
44.93000 302.000
44.97500 302.000
45.02000 275.000
45.06500 306.000
45.11000 290.000
45.15500 293.000
45.20000 281.000
45.24500 277.000
45.29000 287.000
45.33500 306.000
45.38000 283.000
45.42500 296.000
45.47000 281.000
45.51500 289.000
45.56000 276.000
45.60500 302.000
45.65000 321.000
45.69500 291.000
45.74000 298.000
45.78500 295.000
45.83000 263.000
45.87500 276.000
45.92000 269.000
45.96500 263.000
46.01000 269.000
46.05500 288.000
46.10000 276.000
46.14500 276.000
46.19000 258.000
46.23500 277.000
46.28000 260.000
46.32500 259.000
46.37000 261.000
46.41500 273.000
46.46000 265.000
46.50500 278.000
46.55000 262.000
46.59500 267.000
46.64000 249.000
46.68500 262.000
46.73000 273.000
46.77500 274.000
46.82000 250.000
46.86500 262.000
46.91000 257.000
46.95500 273.000
47.00000 264.000
47.04500 287.000
47.09000 294.000
47.13500 258.000
47.18000 292.000
47.22500 279.000
47.27000 277.000
47.31500 279.000
47.36000 250.000
47.40500 271.000
47.45000 264.000
47.49500 272.000
47.54000 286.000
47.58500 262.000
47.63000 256.000
47.67500 274.000
47.72000 265.000
47.76500 276.000
47.81000 285.000
47.85500 278.000
47.90000 291.000
47.94500 278.000
47.99000 268.000
48.03500 249.000
48.08000 276.000
48.12500 258.000
48.17000 276.000
48.21500 253.000
48.26000 292.000
48.30500 284.000
48.35000 241.000
48.39500 269.000
48.44000 271.000
48.48500 253.000
48.53000 278.000
48.57500 288.000
48.62000 255.000
48.66500 270.000
48.71000 233.000
48.75500 262.000
48.80000 277.000
48.84500 271.000
48.89000 270.000
48.93500 262.000
48.98000 252.000
49.02500 266.000
49.07000 278.000
49.11500 270.000
49.16000 279.000
49.20500 279.000
49.25000 254.000
49.29500 266.000
49.34000 280.000
49.38500 267.000
49.43000 248.000
49.47500 268.000
49.52000 261.000
49.56500 244.000
49.61000 269.000
49.65500 262.000
49.70000 263.000
49.74500 242.000
49.79000 258.000
49.83500 266.000
49.88000 246.000
49.92500 261.000
49.97000 261.000
50.01500 251.000
50.06000 252.000
50.10500 248.000
50.15000 282.000
50.19500 244.000
50.24000 235.000
50.28500 248.000
50.33000 243.000
50.37500 264.000
50.42000 241.000
50.46500 230.000
50.51000 252.000
50.55500 241.000
50.60000 225.000
50.64500 233.000
50.69000 236.000
50.73500 256.000
50.78000 248.000
50.82500 219.000
50.87000 236.000
50.91500 230.000
50.96000 241.000
51.00500 253.000
51.05000 238.000
51.09500 244.000
51.14000 242.000
51.18500 251.000
51.23000 256.000
51.27500 239.000
51.32000 274.000
51.36500 243.000
51.41000 252.000
51.45500 243.000
51.50000 234.000
51.54500 250.000
51.59000 237.000
51.63500 249.000
51.68000 247.000
51.72500 260.000
51.77000 215.000
51.81500 256.000
51.86000 241.000
51.90500 231.000
51.95000 242.000
51.99500 247.000
52.04000 249.000
52.08500 243.000
52.13000 269.000
52.17500 256.000
52.22000 226.000
52.26500 240.000
52.31000 271.000
52.35500 233.000
52.40000 263.000
52.44500 221.000
52.49000 253.000
52.53500 240.000
52.58000 245.000
52.62500 260.000
52.67000 261.000
52.71500 218.000
52.76000 262.000
52.80500 265.000
52.85000 232.000
52.89500 231.000
52.94000 256.000
52.98500 267.000
53.03000 272.000
53.07500 243.000
53.12000 234.000
53.16500 277.000
53.21000 238.000
53.25500 243.000
53.30000 256.000
53.34500 237.000
53.39000 260.000
53.43500 235.000
53.48000 281.000
53.52500 274.000
53.57000 270.000
53.61500 263.000
53.66000 265.000
53.70500 276.000
53.75000 267.000
53.79500 293.000
53.84000 280.000
53.88500 265.000
53.93000 269.000
53.97500 264.000
54.02000 266.000
54.06500 242.000
54.11000 238.000
54.15500 277.000
54.20000 262.000
54.24500 253.000
54.29000 264.000
54.33500 264.000
54.38000 264.000
54.42500 246.000
54.47000 253.000
54.51500 250.000
54.56000 258.000
54.60500 256.000
54.65000 284.000
54.69500 254.000
54.74000 268.000
54.78500 273.000
54.83000 262.000
54.87500 263.000
54.92000 237.000
54.96500 261.000
55.01000 266.000
55.05500 262.000
55.10000 258.000
55.14500 262.000
55.19000 273.000
55.23500 278.000
55.28000 288.000
55.32500 266.000
55.37000 243.000
55.41500 254.000
55.46000 264.000
55.50500 245.000
55.55000 265.000
55.59500 242.000
55.64000 261.000
55.68500 258.000
55.73000 263.000
55.77500 243.000
55.82000 260.000
55.86500 267.000
55.91000 243.000
55.95500 277.000
56.00000 238.000
56.04500 262.000
56.09000 251.000
56.13500 242.000
56.18000 252.000
56.22500 237.000
56.27000 237.000
56.31500 252.000
56.36000 235.000
56.40500 222.000
56.45000 271.000
56.49500 238.000
56.54000 243.000
56.58500 259.000
56.63000 244.000
56.67500 261.000
56.72000 254.000
56.76500 242.000
56.81000 232.000
56.85500 250.000
56.90000 240.000
56.94500 246.000
56.99000 258.000
57.03500 252.000
57.08000 250.000
57.12500 246.000
57.17000 225.000
57.21500 235.000
57.26000 247.000
57.30500 252.000
57.35000 263.000
57.39500 231.000
57.44000 246.000
57.48500 238.000
57.53000 261.000
57.57500 259.000
57.62000 258.000
57.66500 237.000
57.71000 223.000
57.75500 258.000
57.80000 251.000
57.84500 267.000
57.89000 262.000
57.93500 255.000
57.98000 261.000
58.02500 231.000
58.07000 262.000
58.11500 263.000
58.16000 264.000
58.20500 242.000
58.25000 230.000
58.29500 239.000
58.34000 251.000
58.38500 244.000
58.43000 247.000
58.47500 231.000
58.52000 241.000
58.56500 234.000
58.61000 226.000
58.65500 224.000
58.70000 227.000
58.74500 214.000
58.79000 224.000
58.83500 226.000
58.88000 209.000
58.92500 231.000
58.97000 234.000
59.01500 235.000
59.06000 222.000
59.10500 223.000
59.15000 213.000
59.19500 227.000
59.24000 208.000
59.28500 216.000
59.33000 212.000
59.37500 218.000
59.42000 212.000
59.46500 213.000
59.51000 218.000
59.55500 221.000
59.60000 199.000
59.64500 220.000
59.69000 218.000
59.73500 215.000
59.78000 200.000
59.82500 214.000
59.87000 205.000
59.91500 212.000
59.96000 195.000
60.00500 212.000
60.05000 212.000
60.09500 191.000
60.14000 222.000
60.18500 224.000
60.23000 193.000
60.27500 184.000
60.32000 204.000
60.36500 220.000
60.41000 196.000
60.45500 210.000
60.50000 210.000
60.54500 206.000
60.59000 208.000
60.63500 195.000
60.68000 219.000
60.72500 201.000
60.77000 207.000
60.81500 190.000
60.86000 217.000
60.90500 195.000
60.95000 203.000
60.99500 212.000
61.04000 199.000
61.08500 197.000
61.13000 199.000
61.17500 204.000
61.22000 194.000
61.26500 201.000
61.31000 191.000
61.35500 224.000
61.40000 204.000
61.44500 209.000
61.49000 186.000
61.53500 210.000
61.58000 180.000
61.62500 210.000
61.67000 202.000
61.71500 202.000
61.76000 198.000
61.80500 187.000
61.85000 192.000
61.89500 204.000
61.94000 184.000
61.98500 200.000