File: ISoD/xrd_data/HSC0075.xy
2.00000	5694.000
2.04500	5426.000
2.09000	5523.000
2.13500	5465.000
2.18000	5331.000
2.22500	5395.000
2.27000	6127.000
2.31500	11529.000
2.36000	14350.000
2.40500	6713.000
2.45000	4847.000
2.49500	4704.000
2.54000	4468.000
2.58500	4452.000
2.63000	4040.000
2.67500	4046.000
2.72000	4110.000
2.76500	5124.000
2.81000	6755.000
2.85500	4705.000
2.90000	4672.000
2.94500	3695.000
2.99000	3388.000
3.03500	3333.000
3.08000	3248.000
3.12500	3246.000
3.17000	3191.000
3.21500	3056.000
3.26000	2956.000
3.30500	2936.000
3.35000	2881.000
3.39500	2791.000
3.44000	2784.000
3.48500	2705.000
3.53000	2543.000
3.57500	2536.000
3.62000	2508.000
3.66500	2512.000
3.71000	2447.000
3.75500	2413.000
3.80000	2419.000
3.84500	2477.000
3.89000	2467.000
3.93500	2510.000
3.98000	2481.000
4.02500	2409.000
4.07000	2388.000
4.11500	2334.000
4.16000	2382.000
4.20500	2252.000
4.25000	2336.000
4.29500	2156.000
4.34000	2249.000
4.38500	2192.000
4.43000	2143.000
4.47500	2154.000
4.52000	2069.000
4.56500	2096.000
4.61000	2036.000
4.65500	1942.000
4.70000	2005.000
4.74500	1960.000
4.79000	1921.000
4.83500	1959.000
4.88000	1910.000
4.92500	1819.000
4.97000	1949.000
5.01500	1918.000
5.06000	1878.000
5.10500	1902.000
5.15000	2082.000
5.19500	2020.000
5.24000	2001.000
5.28500	1964.000
5.33000	1674.000
5.37500	1785.000
5.42000	2095.000
5.46500	1880.000
5.51000	1779.000
5.55500	1716.000
5.60000	1690.000
5.64500	1632.000
5.69000	1658.000
5.73500	1717.000
5.78000	1583.000
5.82500	1689.000
5.87000	1739.000
5.91500	1795.000
5.96000	1783.000
6.00500	1886.000
6.05000	1953.000
6.09500	2085.000
6.14000	2151.000
6.18500	2269.000
6.23000	2403.000
6.27500	2056.000
6.32000	1925.000
6.36500	1718.000
6.41000	1631.000
6.45500	1602.000
6.50000	1473.000
6.54500	1433.000
6.59000	1418.000
6.63500	1371.000
6.68000	1348.000
6.72500	1357.000
6.77000	1322.000
6.81500	1293.000
6.86000	1281.000
6.90500	1318.000
6.95000	1243.000
6.99500	1274.000
7.04000	1236.000
7.08500	1240.000
7.13000	1208.000
7.17500	1235.000
7.22000	1190.000
7.26500	1202.000
7.31000	1174.000
7.35500	1192.000
7.40000	1200.000
7.44500	1159.000
7.49000	1193.000
7.53500	1115.000
7.58000	1126.000
7.62500	1139.000
7.67000	1202.000
7.71500	1099.000
7.76000	1089.000
7.80500	1127.000
7.85000	1117.000
7.89500	1073.000
7.94000	1110.000
7.98500	1068.000
8.03000	1053.000
8.07500	1005.000
8.12000	1027.000
8.16500	1028.000
8.21000	1132.000
8.25500	1112.000
8.30000	1089.000
8.34500	1025.000
8.39000	1084.000
8.43500	1222.000
8.48000	1531.000
8.52500	1560.000
8.57000	1417.000
8.61500	1246.000
8.66000	1256.000
8.70500	1280.000
8.75000	1209.000
8.79500	1227.000
8.84000	1170.000
8.88500	1146.000
8.93000	1110.000
8.97500	1036.000
9.02000	1011.000
9.06500	983.000
9.11000	1017.000
9.15500	974.000
9.20000	1007.000
9.24500	941.000
9.29000	901.000
9.33500	974.000
9.38000	925.000
9.42500	955.000
9.47000	892.000
9.51500	972.000
9.56000	923.000
9.60500	967.000
9.65000	936.000
9.69500	979.000
9.74000	942.000
9.78500	973.000
9.83000	1018.000
9.87500	987.000
9.92000	981.000
9.96500	1023.000
10.01000	1141.000
10.05500	1176.000
10.10000	1213.000
10.14500	1293.000
10.19000	1388.000
10.23500	1384.000
10.28000	1450.000
10.32500	1511.000
10.37000	1473.000
10.41500	1626.000
10.46000	1838.000
10.50500	1225.000
10.55000	1157.000
10.59500	1292.000
10.64000	1203.000
10.68500	1054.000
10.73000	1051.000
10.77500	1059.000
10.82000	1123.000
10.86500	1131.000
10.91000	1170.000
10.95500	1274.000
11.00000	1316.000
11.04500	1172.000
11.09000	1026.000
11.13500	903.000
11.18000	915.000
11.22500	801.000
11.27000	795.000
11.31500	786.000
11.36000	763.000
11.40500	772.000
11.45000	719.000
11.49500	721.000
11.54000	751.000
11.58500	759.000
11.63000	726.000
11.67500	739.000
11.72000	749.000
11.76500	724.000
11.81000	705.000
11.85500	704.000
11.90000	715.000
11.94500	735.000
11.99000	724.000
12.03500	684.000
12.08000	697.000
12.12500	692.000
12.17000	719.000
12.21500	757.000
12.26000	736.000
12.30500	704.000
12.35000	715.000
12.39500	714.000
12.44000	719.000
12.48500	770.000
12.53000	774.000
12.57500	826.000
12.62000	692.000
12.66500	688.000
12.71000	699.000
12.75500	716.000
12.80000	659.000
12.84500	690.000
12.89000	678.000
12.93500	654.000
12.98000	670.000
13.02500	643.000
13.07000	633.000
13.11500	661.000
13.16000	642.000
13.20500	603.000
13.25000	634.000
13.29500	616.000
13.34000	665.000
13.38500	606.000
13.43000	646.000
13.47500	648.000
13.52000	597.000
13.56500	616.000
13.61000	592.000
13.65500	629.000
13.70000	653.000
13.74500	650.000
13.79000	586.000
13.83500	636.000
13.88000	583.000
13.92500	592.000
13.97000	610.000
14.01500	615.000
14.06000	624.000
14.10500	626.000
14.15000	611.000
14.19500	609.000
14.24000	566.000
14.28500	574.000
14.33000	601.000
14.37500	598.000
14.42000	582.000
14.46500	627.000
14.51000	599.000
14.55500	626.000
14.60000	578.000
14.64500	589.000
14.69000	600.000
14.73500	620.000
14.78000	559.000
14.82500	566.000
14.87000	585.000
14.91500	603.000
14.96000	611.000
15.00500	643.000
15.05000	684.000
15.09500	575.000
15.14000	540.000
15.18500	579.000
15.23000	593.000
15.27500	561.000
15.32000	607.000
15.36500	584.000
15.41000	577.000
15.45500	567.000
15.50000	549.000
15.54500	542.000
15.59000	573.000
15.63500	541.000
15.68000	589.000
15.72500	580.000
15.77000	531.000
15.81500	538.000
15.86000	553.000
15.90500	544.000
15.95000	545.000
15.99500	588.000
16.04000	552.000
16.08500	571.000
16.13000	544.000
16.17500	559.000
16.22000	576.000
16.26500	550.000
16.31000	581.000
16.35500	546.000
16.40000	545.000
16.44500	537.000
16.49000	568.000
16.53500	578.000
16.58000	579.000
16.62500	579.000
16.67000	572.000
16.71500	581.000
16.76000	556.000
16.80500	548.000
16.85000	589.000
16.89500	571.000
16.94000	547.000
16.98500	553.000
17.03000	559.000
17.07500	549.000
17.12000	530.000
17.16500	559.000
17.21000	551.000
17.25500	581.000
17.30000	543.000
17.34500	620.000
17.39000	628.000
17.43500	636.000
17.48000	669.000
17.52500	691.000
17.57000	740.000
17.61500	691.000
17.66000	689.000
17.70500	649.000
17.75000	621.000
17.79500	616.000
17.84000	613.000
17.88500	637.000
17.93000	626.000
17.97500	594.000
18.02000	570.000
18.06500	591.000
18.11000	579.000
18.15500	573.000
18.20000	593.000
18.24500	595.000
18.29000	639.000
18.33500	610.000
18.38000	608.000
18.42500	629.000
18.47000	666.000
18.51500	652.000
18.56000	749.000
18.60500	752.000
18.65000	830.000
18.69500	957.000
18.74000	1170.000
18.78500	1089.000
18.83000	944.000
18.87500	995.000
18.92000	961.000
18.96500	922.000
19.01000	926.000
19.05500	856.000
19.10000	844.000
19.14500	808.000
19.19000	827.000
19.23500	1002.000
19.28000	1034.000
19.32500	678.000
19.37000	652.000
19.41500	590.000
19.46000	547.000
19.50500	623.000
19.55000	528.000
19.59500	564.000
19.64000	498.000
19.68500	536.000
19.73000	529.000
19.77500	533.000
19.82000	534.000
19.86500	523.000
19.91000	491.000
19.95500	492.000
20.00000	513.000
20.04500	486.000
20.09000	542.000
20.13500	497.000
20.18000	512.000
20.22500	495.000
20.27000	496.000
20.31500	472.000
20.36000	492.000
20.40500	504.000
20.45000	497.000
20.49500	559.000
20.54000	501.000
20.58500	488.000
20.63000	501.000
20.67500	519.000
20.72000	473.000
20.76500	501.000
20.81000	486.000
20.85500	508.000
20.90000	550.000
20.94500	537.000
20.99000	546.000
21.03500	525.000
21.08000	551.000
21.12500	543.000
21.17000	527.000
21.21500	527.000
21.26000	458.000
21.30500	503.000
21.35000	494.000
21.39500	487.000
21.44000	490.000
21.48500	512.000
21.53000	497.000
21.57500	478.000
21.62000	477.000
21.66500	503.000
21.71000	470.000
21.75500	440.000
21.80000	478.000
21.84500	465.000
21.89000	483.000
21.93500	480.000
21.98000	496.000
22.02500	495.000
22.07000	481.000
22.11500	502.000
22.16000	481.000
22.20500	448.000
22.25000	473.000
22.29500	486.000
22.34000	492.000
22.38500	462.000
22.43000	475.000
22.47500	463.000
22.52000	459.000
22.56500	497.000
22.61000	487.000
22.65500	477.000
22.70000	484.000
22.74500	487.000
22.79000	475.000
22.83500	467.000
22.88000	485.000
22.92500	461.000
22.97000	483.000
23.01500	487.000
23.06000	471.000
23.10500	435.000
23.15000	468.000
23.19500	516.000
23.24000	477.000
23.28500	473.000
23.33000	477.000
23.37500	484.000
23.42000	504.000
23.46500	457.000
23.51000	480.000
23.55500	508.000
23.60000	446.000
23.64500	460.000
23.69000	448.000
23.73500	485.000
23.78000	444.000
23.82500	488.000
23.87000	473.000
23.91500	459.000
23.96000	465.000
24.00500	492.000
24.05000	475.000
24.09500	504.000
24.14000	477.000
24.18500	493.000
24.23000	469.000
24.27500	516.000
24.32000	534.000
24.36500	633.000
24.41000	605.000
24.45500	679.000
24.50000	953.000
24.54500	906.000
24.59000	604.000
24.63500	592.000
24.68000	574.000
24.72500	581.000
24.77000	607.000
24.81500	601.000
24.86000	624.000
24.90500	674.000
24.95000	724.000
24.99500	751.000
25.04000	800.000
25.08500	927.000
25.13000	833.000
25.17500	830.000
25.22000	846.000
25.26500	908.000
25.31000	871.000
25.35500	893.000
25.40000	915.000
25.44500	963.000
25.49000	1031.000
25.53500	1089.000
25.58000	1131.000
25.62500	1073.000
25.67000	1104.000
25.71500	1076.000
25.76000	1103.000
25.80500	1248.000
25.85000	1018.000
25.89500	936.000
25.94000	859.000
25.98500	872.000
26.03000	848.000
26.07500	866.000
26.12000	930.000
26.16500	797.000
26.21000	781.000
26.25500	795.000
26.30000	741.000
26.34500	732.000
26.39000	741.000
26.43500	781.000
26.48000	916.000
26.52500	975.000
26.57000	1355.000
26.61500	1649.000
26.66000	931.000
26.70500	741.000
26.75000	753.000
26.79500	679.000
26.84000	719.000
26.88500	705.000
26.93000	700.000
26.97500	685.000
27.02000	688.000
27.06500	712.000
27.11000	717.000
27.15500	722.000
27.20000	757.000
27.24500	723.000
27.29000	756.000
27.33500	803.000
27.38000	806.000
27.42500	854.000
27.47000	935.000
27.51500	1035.000
27.56000	1397.000
27.60500	1945.000
27.65000	1397.000
27.69500	1252.000
27.74000	1412.000
27.78500	1338.000
27.83000	1425.000
27.87500	1517.000
27.92000	1576.000
27.96500	1567.000
28.01000	1768.000
28.05500	1946.000
28.10000	2194.000
28.14500	2106.000
28.19000	1764.000
28.23500	1421.000
28.28000	1193.000
28.32500	1092.000
28.37000	1032.000
28.41500	894.000
28.46000	810.000
28.50500	697.000
28.55000	662.000
28.59500	686.000
28.64000	702.000
28.68500	611.000
28.73000	577.000
28.77500	555.000
28.82000	586.000
28.86500	571.000
28.91000	549.000
28.95500	563.000
29.00000	497.000
29.04500	510.000
29.09000	560.000
29.13500	507.000
29.18000	537.000
29.22500	515.000
29.27000	552.000
29.31500	515.000
29.36000	505.000
29.40500	492.000
29.45000	496.000
29.49500	516.000
29.54000	544.000
29.58500	554.000
29.63000	564.000
29.67500	533.000
29.72000	477.000
29.76500	450.000
29.81000	483.000
29.85500	542.000
29.90000	521.000
29.94500	461.000
29.99000	465.000
30.03500	469.000
30.08000	492.000
30.12500	496.000
30.17000	503.000
30.21500	450.000
30.26000	464.000
30.30500	499.000
30.35000	537.000
30.39500	626.000
30.44000	1046.000
30.48500	790.000
30.53000	552.000
30.57500	454.000
30.62000	388.000
30.66500	412.000
30.71000	407.000
30.75500	394.000
30.80000	393.000
30.84500	403.000
30.89000	369.000
30.93500	459.000
30.98000	429.000
31.02500	417.000
31.07000	388.000
31.11500	383.000
31.16000	399.000
31.20500	369.000
31.25000	367.000
31.29500	381.000
31.34000	388.000
31.38500	378.000
31.43000	410.000
31.47500	397.000
31.52000	389.000
31.56500	406.000
31.61000	453.000
31.65500	455.000
31.70000	395.000
31.74500	384.000
31.79000	368.000
31.83500	359.000
31.88000	391.000
31.92500	371.000
31.97000	382.000
32.01500	421.000
32.06000	400.000
32.10500	371.000
32.15000	377.000
32.19500	363.000
32.24000	360.000
32.28500	360.000
32.33000	377.000
32.37500	389.000
32.42000	373.000
32.46500	373.000
32.51000	384.000
32.55500	376.000
32.60000	370.000
32.64500	436.000
32.69000	382.000
32.73500	367.000
32.78000	364.000
32.82500	370.000
32.87000	356.000
32.91500	360.000
32.96000	363.000
33.00500	387.000
33.05000	381.000
33.09500	389.000
33.14000	385.000
33.18500	349.000
33.23000	354.000
33.27500	344.000
33.32000	349.000
33.36500	336.000
33.41000	357.000
33.45500	384.000
33.50000	323.000
33.54500	331.000
33.59000	365.000
33.63500	352.000
33.68000	368.000
33.72500	441.000
33.77000	387.000
33.81500	348.000
33.86000	337.000
33.90500	367.000
33.95000	383.000
33.99500	412.000
34.04000	350.000
34.08500	347.000
34.13000	326.000
34.17500	343.000
34.22000	311.000
34.26500	325.000
34.31000	320.000
34.35500	325.000
34.40000	346.000
34.44500	339.000
34.49000	319.000
34.53500	313.000
34.58000	326.000
34.62500	310.000
34.67000	300.000
34.71500	282.000
34.76000	288.000
34.80500	279.000
34.85000	298.000
34.89500	269.000
34.94000	271.000
34.98500	290.000
35.03000	293.000
35.07500	299.000
35.12000	294.000
35.16500	295.000
35.21000	292.000
35.25500	302.000
35.30000	318.000
35.34500	345.000
35.39000	314.000
35.43500	324.000
35.48000	294.000
35.52500	320.000
35.57000	293.000
35.61500	328.000
35.66000	343.000
35.70500	337.000
35.75000	345.000
35.79500	478.000
35.84000	451.000
35.88500	328.000
35.93000	336.000
35.97500	347.000
36.02000	325.000
36.06500	314.000
36.11000	299.000
36.15500	289.000
36.20000	285.000
36.24500	286.000
36.29000	315.000
36.33500	265.000
36.38000	293.000
36.42500	283.000
36.47000	329.000
36.51500	305.000
36.56000	311.000
36.60500	304.000
36.65000	282.000
36.69500	310.000
36.74000	287.000
36.78500	308.000
36.83000	296.000
36.87500	285.000
36.92000	295.000
36.96500	292.000
37.01000	351.000
37.05500	296.000
37.10000	276.000
37.14500	304.000
37.19000	306.000
37.23500	295.000
37.28000	299.000
37.32500	301.000
37.37000	316.000
37.41500	337.000
37.46000	274.000
37.50500	324.000
37.55000	310.000
37.59500	305.000
37.64000	279.000
37.68500	280.000
37.73000	293.000
37.77500	296.000
37.82000	274.000
37.86500	269.000
37.91000	287.000
37.95500	284.000
38.00000	296.000
38.04500	302.000
38.09000	297.000
38.13500	285.000
38.18000	264.000
38.22500	291.000
38.27000	280.000
38.31500	270.000
38.36000	278.000
38.40500	280.000
38.45000	278.000
38.49500	264.000
38.54000	256.000
38.58500	297.000
38.63000	286.000
38.67500	276.000
38.72000	300.000
38.76500	334.000
38.81000	397.000
38.85500	366.000
38.90000	311.000
38.94500	290.000
38.99000	311.000
39.03500	318.000
39.08000	309.000
39.12500	269.000
39.17000	267.000
39.21500	286.000
39.26000	268.000
39.30500	281.000
39.35000	271.000
39.39500	280.000
39.44000	292.000
39.48500	278.000
39.53000	257.000
39.57500	251.000
39.62000	245.000
39.66500	253.000
39.71000	255.000
39.75500	218.000
39.80000	225.000
39.84500	248.000
39.89000	233.000
39.93500	214.000
39.98000	239.000
40.02500	225.000
40.07000	244.000
40.11500	230.000
40.16000	239.000
40.20500	248.000
40.25000	243.000
40.29500	203.000
40.34000	248.000
40.38500	237.000
40.43000	226.000
40.47500	220.000
40.52000	212.000
40.56500	243.000
40.61000	240.000
40.65500	215.000
40.70000	223.000
40.74500	257.000
40.79000	268.000
40.83500	286.000
40.88000	242.000
40.92500	212.000
40.97000	215.000
41.01500	203.000
41.06000	208.000
41.10500	233.000
41.15000	223.000
41.19500	219.000
41.24000	228.000
41.28500	226.000
41.33000	231.000
41.37500	254.000
41.42000	228.000
41.46500	231.000
41.51000	229.000
41.55500	215.000
41.60000	223.000
41.64500	212.000
41.69000	229.000
41.73500	217.000
41.78000	220.000
41.82500	214.000
41.87000	213.000
41.91500	205.000
41.96000	204.000
42.00500	228.000
42.05000	228.000
42.09500	219.000
42.14000	241.000
42.18500	225.000
42.23000	237.000
42.27500	264.000
42.32000	248.000
42.36500	264.000
42.41000	233.000
42.45500	250.000
42.50000	221.000
42.54500	230.000
42.59000	247.000
42.63500	230.000
42.68000	205.000
42.72500	239.000
42.77000	231.000
42.81500	231.000
42.86000	231.000
42.90500	238.000
42.95000	223.000
42.99500	222.000
43.04000	212.000
43.08500	248.000
43.13000	231.000
43.17500	255.000
43.22000	222.000
43.26500	244.000
43.31000	242.000
43.35500	226.000
43.40000	248.000
43.44500	210.000
43.49000	221.000
43.53500	190.000
43.58000	203.000
43.62500	221.000
43.67000	197.000
43.71500	197.000
43.76000	203.000
43.80500	188.000
43.85000	190.000
43.89500	225.000
43.94000	211.000
43.98500	198.000
44.03000	238.000
44.07500	201.000
44.12000	204.000
44.16500	232.000
44.21000	229.000
44.25500	263.000
44.30000	242.000
44.34500	203.000
44.39000	210.000
44.43500	222.000
44.48000	201.000
44.52500	205.000
44.57000	213.000
44.61500	221.000
44.66000	267.000
44.70500	220.000
44.75000	250.000
44.79500	220.000
44.84000	208.000
44.88500	225.000
44.93000	227.000
44.97500	226.000
45.02000	234.000
45.06500	220.000
45.11000	223.000
45.15500	219.000
45.20000	208.000
45.24500	237.000
45.29000	224.000
45.33500	213.000
45.38000	219.000
45.42500	232.000
45.47000	246.000
45.51500	224.000
45.56000	246.000
45.60500	215.000
45.65000	221.000
45.69500	222.000
45.74000	225.000
45.78500	216.000
45.83000	235.000
45.87500	213.000
45.92000	206.000
45.96500	210.000
46.01000	203.000
46.05500	203.000
46.10000	190.000
46.14500	213.000
46.19000	230.000
46.23500	220.000
46.28000	211.000
46.32500	208.000
46.37000	212.000
46.41500	193.000
46.46000	204.000
46.50500	208.000
46.55000	203.000
46.59500	197.000
46.64000	187.000
46.68500	195.000
46.73000	189.000
46.77500	201.000
46.82000	207.000
46.86500	180.000
46.91000	180.000
46.95500	207.000
47.00000	245.000
47.04500	227.000
47.09000	221.000
47.13500	175.000
47.18000	197.000
47.22500	185.000
47.27000	185.000
47.31500	197.000
47.36000	184.000
47.40500	200.000
47.45000	195.000
47.49500	206.000
47.54000	218.000
47.58500	218.000
47.63000	229.000
47.67500	193.000
47.72000	230.000
47.76500	230.000
47.81000	205.000
47.85500	226.000
47.90000	215.000
47.94500	217.000
47.99000	224.000
48.03500	231.000
48.08000	191.000
48.12500	218.000
48.17000	195.000
48.21500	185.000
48.26000	211.000
48.30500	209.000
48.35000	206.000
48.39500	206.000
48.44000	221.000
48.48500	216.000
48.53000	194.000
48.57500	190.000
48.62000	203.000
48.66500	189.000
48.71000	188.000
48.75500	189.000
48.80000	195.000
48.84500	187.000
48.89000	209.000
48.93500	207.000
48.98000	202.000
49.02500	220.000
49.07000	258.000
49.11500	219.000
49.16000	220.000
49.20500	179.000
49.25000	206.000
49.29500	215.000
49.34000	211.000
49.38500	222.000
49.43000	199.000
49.47500	199.000
49.52000	183.000
49.56500	189.000
49.61000	189.000
49.65500	198.000
49.70000	194.000
49.74500	177.000
49.79000	196.000
49.83500	203.000
49.88000	195.000
49.92500	196.000
49.97000	198.000
50.01500	189.000
50.06000	165.000
50.10500	185.000
50.15000	194.000
50.19500	200.000
50.24000	201.000
50.28500	192.000
50.33000	188.000
50.37500	209.000
50.42000	201.000
50.46500	170.000
50.51000	199.000
50.55500	193.000
50.60000	201.000
50.64500	210.000
50.69000	230.000
50.73500	183.000
50.78000	177.000
50.82500	172.000
50.87000	197.000
50.91500	172.000
50.96000	171.000
51.00500	161.000
51.05000	190.000
51.09500	186.000
51.14000	192.000
51.18500	208.000
51.23000	181.000
51.27500	197.000
51.32000	204.000
51.36500	177.000
51.41000	199.000
51.45500	187.000
51.50000	175.000
51.54500	216.000
51.59000	181.000
51.63500	200.000
51.68000	208.000
51.72500	206.000
51.77000	190.000
51.81500	185.000
51.86000	178.000
51.90500	203.000
51.95000	199.000
51.99500	195.000
52.04000	181.000
52.08500	193.000
52.13000	190.000
52.17500	203.000
52.22000	206.000
52.26500	224.000
52.31000	207.000
52.35500	201.000
52.40000	206.000
52.44500	199.000
52.49000	192.000
52.53500	200.000
52.58000	187.000
52.62500	196.000
52.67000	192.000
52.71500	193.000
52.76000	217.000
52.80500	209.000
52.85000	210.000
52.89500	203.000
52.94000	213.000
52.98500	230.000
53.03000	202.000
53.07500	207.000
53.12000	197.000
53.16500	199.000
53.21000	189.000
53.25500	194.000
53.30000	210.000
53.34500	229.000
53.39000	217.000
53.43500	251.000
53.48000	207.000
53.52500	217.000
53.57000	221.000
53.61500	206.000
53.66000	217.000
53.70500	211.000
53.75000	215.000
53.79500	208.000
53.84000	208.000
53.88500	205.000
53.93000	241.000
53.97500	246.000
54.02000	223.000
54.06500	221.000
54.11000	215.000
54.15500	234.000
54.20000	228.000
54.24500	212.000
54.29000	207.000
54.33500	189.000
54.38000	182.000
54.42500	189.000
54.47000	201.000
54.51500	181.000
54.56000	193.000
54.60500	212.000
54.65000	217.000
54.69500	208.000
54.74000	214.000
54.78500	230.000
54.83000	212.000
54.87500	224.000
54.92000	198.000
54.96500	198.000
55.01000	211.000
55.05500	221.000
55.10000	203.000
55.14500	197.000
55.19000	200.000
55.23500	173.000
55.28000	193.000
55.32500	185.000
55.37000	197.000
55.41500	176.000
55.46000	186.000
55.50500	199.000
55.55000	202.000
55.59500	201.000
55.64000	185.000
55.68500	200.000
55.73000	213.000
55.77500	196.000
55.82000	221.000
55.86500	190.000
55.91000	192.000
55.95500	186.000
56.00000	178.000
56.04500	203.000
56.09000	186.000
56.13500	181.000
56.18000	202.000
56.22500	194.000
56.27000	204.000
56.31500	171.000
56.36000	163.000
56.40500	180.000
56.45000	168.000
56.49500	166.000
56.54000	199.000
56.58500	180.000
56.63000	189.000
56.67500	181.000
56.72000	157.000
56.76500	202.000
56.81000	171.000
56.85500	178.000
56.90000	174.000
56.94500	198.000
56.99000	172.000
57.03500	182.000
57.08000	183.000
57.12500	166.000
57.17000	176.000
57.21500	177.000
57.26000	175.000
57.30500	169.000
57.35000	184.000
57.39500	205.000
57.44000	179.000
57.48500	191.000
57.53000	191.000
57.57500	197.000
57.62000	179.000
57.66500	216.000
57.71000	174.000
57.75500	191.000
57.80000	196.000
57.84500	191.000
57.89000	194.000
57.93500	214.000
57.98000	188.000
58.02500	196.000
58.07000	186.000
58.11500	202.000
58.16000	201.000
58.20500	199.000
58.25000	188.000
58.29500	188.000
58.34000	189.000
58.38500	189.000
58.43000	189.000
58.47500	202.000
58.52000	200.000
58.56500	176.000
58.61000	171.000
58.65500	185.000
58.70000	178.000
58.74500	178.000
58.79000	174.000
58.83500	164.000
58.88000	167.000
58.92500	166.000
58.97000	188.000
59.01500	161.000
59.06000	201.000
59.10500	159.000
59.15000	172.000
59.19500	171.000
59.24000	158.000
59.28500	154.000
59.33000	157.000
59.37500	149.000
59.42000	168.000
59.46500	168.000
59.51000	152.000
59.55500	163.000
59.60000	148.000
59.64500	142.000
59.69000	155.000
59.73500	156.000
59.78000	174.000
59.82500	164.000
59.87000	164.000
59.91500	175.000
59.96000	163.000
60.00500	138.000
60.05000	163.000
60.09500	161.000
60.14000	165.000
60.18500	170.000
60.23000	162.000
60.27500	156.000
60.32000	156.000
60.36500	165.000
60.41000	148.000
60.45500	159.000
60.50000	162.000
60.54500	154.000
60.59000	166.000
60.63500	171.000
60.68000	158.000
60.72500	154.000
60.77000	133.000
60.81500	158.000
60.86000	150.000
60.90500	148.000
60.95000	147.000
60.99500	141.000
61.04000	143.000
61.08500	173.000
61.13000	158.000
61.17500	154.000
61.22000	138.000
61.26500	153.000
61.31000	139.000
61.35500	135.000
61.40000	138.000
61.44500	159.000
61.49000	158.000
61.53500	143.000
61.58000	136.000
61.62500	164.000
61.67000	145.000
61.71500	149.000
61.76000	149.000
61.80500	164.000
61.85000	145.000
61.89500	150.000
61.94000	141.000
61.98500	156.000