File: ISoD/xrd_data/HSC006B_range_1.xy
2.00000 537.000
2.04500 535.000
2.09000 597.000
2.13500 567.000
2.18000 556.000
2.22500 532.000
2.27000 503.000
2.31500 467.000
2.36000 404.000
2.40500 364.000
2.45000 310.000
2.49500 282.000
2.54000 264.000
2.58500 242.000
2.63000 236.000
2.67500 240.000
2.72000 208.000
2.76500 200.000
2.81000 199.000
2.85500 186.000
2.90000 183.000
2.94500 184.000
2.99000 164.000
3.03500 157.000
3.08000 153.000
3.12500 169.000
3.17000 153.000
3.21500 179.000
3.26000 148.000
3.30500 170.000
3.35000 155.000
3.39500 162.000
3.44000 160.000
3.48500 145.000
3.53000 138.000
3.57500 154.000
3.62000 124.000
3.66500 135.000
3.71000 144.000
3.75500 143.000
3.80000 130.000
3.84500 142.000
3.89000 137.000
3.93500 140.000
3.98000 132.000
4.02500 129.000
4.07000 132.000
4.11500 126.000
4.16000 122.000
4.20500 137.000
4.25000 142.000
4.29500 116.000
4.34000 150.000
4.38500 110.000
4.43000 149.000
4.47500 120.000
4.52000 119.000
4.56500 112.000
4.61000 125.000
4.65500 117.000
4.70000 127.000
4.74500 122.000
4.79000 118.000
4.83500 117.000
4.88000 111.000
4.92500 108.000
4.97000 113.000
5.01500 119.000
5.06000 106.000
5.10500 102.000
5.15000 117.000
5.19500 110.000
5.24000 127.000
5.28500 122.000
5.33000 93.000
5.37500 113.000
5.42000 110.000
5.46500 105.000
5.51000 123.000
5.55500 112.000
5.60000 111.000
5.64500 125.000
5.69000 110.000
5.73500 100.000
5.78000 114.000
5.82500 89.000
5.87000 114.000
5.91500 120.000
5.96000 116.000
6.00500 121.000
6.05000 117.000
6.09500 102.000
6.14000 98.000
6.18500 105.000
6.23000 113.000
6.27500 100.000
6.32000 123.000
6.36500 107.000
6.41000 92.000
6.45500 109.000
6.50000 118.000
6.54500 102.000
6.59000 96.000
6.63500 106.000
6.68000 125.000
6.72500 113.000
6.77000 104.000
6.81500 121.000
6.86000 127.000
6.90500 135.000
6.95000 116.000
6.99500 116.000
7.04000 96.000
7.08500 134.000
7.13000 118.000
7.17500 103.000
7.22000 125.000
7.26500 116.000
7.31000 105.000
7.35500 114.000
7.40000 114.000
7.44500 99.000
7.49000 119.000
7.53500 120.000
7.58000 119.000
7.62500 135.000
7.67000 126.000
7.71500 118.000
7.76000 127.000
7.80500 130.000
7.85000 120.000
7.89500 109.000
7.94000 122.000
7.98500 123.000
8.03000 117.000
8.07500 126.000
8.12000 124.000
8.16500 117.000
8.21000 111.000
8.25500 117.000
8.30000 114.000
8.34500 117.000
8.39000 121.000
8.43500 118.000
8.48000 125.000
8.52500 115.000
8.57000 119.000
8.61500 118.000
8.66000 113.000
8.70500 131.000
8.75000 130.000
8.79500 124.000
8.84000 124.000
8.88500 112.000
8.93000 118.000
8.97500 122.000
9.02000 119.000
9.06500 126.000
9.11000 120.000
9.15500 125.000
9.20000 107.000
9.24500 126.000
9.29000 125.000
9.33500 119.000
9.38000 121.000
9.42500 116.000
9.47000 127.000
9.51500 102.000
9.56000 119.000
9.60500 114.000
9.65000 138.000
9.69500 131.000
9.74000 122.000
9.78500 125.000
9.83000 110.000
9.87500 129.000
9.92000 112.000
9.96500 124.000
10.01000 133.000
10.05500 117.000
10.10000 115.000
10.14500 114.000
10.19000 124.000
10.23500 120.000
10.28000 133.000
10.32500 122.000
10.37000 129.000
10.41500 123.000
10.46000 133.000
10.50500 130.000
10.55000 131.000
10.59500 118.000
10.64000 122.000
10.68500 135.000
10.73000 138.000
10.77500 123.000
10.82000 147.000
10.86500 123.000
10.91000 149.000
10.95500 136.000
11.00000 131.000
11.04500 135.000
11.09000 130.000
11.13500 120.000
11.18000 133.000
11.22500 123.000
11.27000 150.000
11.31500 123.000
11.36000 147.000
11.40500 124.000
11.45000 138.000
11.49500 140.000
11.54000 140.000
11.58500 144.000
11.63000 132.000
11.67500 134.000
11.72000 129.000
11.76500 156.000
11.81000 126.000
11.85500 146.000
11.90000 135.000
11.94500 132.000
11.99000 142.000
12.03500 139.000
12.08000 127.000
12.12500 163.000
12.17000 142.000
12.21500 136.000
12.26000 159.000
12.30500 134.000
12.35000 133.000
12.39500 131.000
12.44000 154.000
12.48500 146.000
12.53000 155.000
12.57500 166.000
12.62000 154.000
12.66500 157.000
12.71000 152.000
12.75500 142.000
12.80000 159.000
12.84500 144.000
12.89000 142.000
12.93500 159.000
12.98000 145.000
13.02500 157.000
13.07000 159.000
13.11500 145.000
13.16000 141.000
13.20500 164.000
13.25000 172.000
13.29500 161.000
13.34000 166.000
13.38500 184.000
13.43000 158.000
13.47500 162.000
13.52000 162.000
13.56500 149.000
13.61000 170.000
13.65500 176.000
13.70000 168.000
13.74500 163.000
13.79000 187.000
13.83500 187.000
13.88000 171.000
13.92500 173.000
13.97000 186.000
14.01500 177.000
14.06000 159.000
14.10500 159.000
14.15000 179.000
14.19500 195.000
14.24000 184.000
14.28500 202.000
14.33000 176.000
14.37500 206.000
14.42000 173.000
14.46500 173.000
14.51000 190.000
14.55500 173.000
14.60000 191.000
14.64500 181.000
14.69000 181.000
14.73500 191.000
14.78000 175.000
14.82500 173.000
14.87000 184.000
14.91500 165.000
14.96000 164.000
15.00500 166.000
15.05000 190.000
15.09500 199.000
15.14000 190.000
15.18500 181.000
15.23000 191.000
15.27500 195.000
15.32000 180.000
15.36500 186.000
15.41000 178.000
15.45500 185.000
15.50000 191.000
15.54500 204.000
15.59000 191.000
15.63500 193.000
15.68000 216.000
15.72500 191.000
15.77000 178.000
15.81500 202.000
15.86000 207.000
15.90500 184.000
15.95000 204.000
15.99500 190.000
16.04000 199.000
16.08500 210.000
16.13000 210.000
16.17500 193.000
16.22000 186.000
16.26500 206.000
16.31000 190.000
16.35500 177.000
16.40000 188.000
16.44500 187.000
16.49000 212.000
16.53500 196.000
16.58000 195.000
16.62500 213.000
16.67000 218.000
16.71500 198.000
16.76000 182.000
16.80500 178.000
16.85000 191.000
16.89500 196.000
16.94000 181.000
16.98500 192.000
17.03000 200.000
17.07500 217.000
17.12000 203.000
17.16500 206.000
17.21000 190.000
17.25500 187.000
17.30000 211.000
17.34500 186.000
17.39000 206.000
17.43500 213.000
17.48000 217.000
17.52500 204.000
17.57000 196.000
17.61500 186.000
17.66000 205.000
17.70500 205.000
17.75000 190.000
17.79500 214.000
17.84000 208.000
17.88500 222.000
17.93000 215.000
17.97500 213.000
18.02000 216.000
18.06500 207.000
18.11000 211.000
18.15500 219.000
18.20000 238.000
18.24500 224.000
18.29000 217.000
18.33500 231.000
18.38000 239.000
18.42500 266.000
18.47000 253.000
18.51500 256.000
18.56000 287.000
18.60500 292.000
18.65000 321.000
18.69500 318.000
18.74000 338.000
18.78500 330.000
18.83000 296.000
18.87500 276.000
18.92000 269.000
18.96500 259.000
19.01000 252.000
19.05500 218.000
19.10000 215.000
19.14500 253.000
19.19000 224.000
19.23500 202.000
19.28000 204.000
19.32500 219.000
19.37000 238.000
19.41500 229.000
19.46000 224.000
19.50500 222.000
19.55000 230.000
19.59500 231.000
19.64000 215.000
19.68500 233.000
19.73000 221.000
19.77500 222.000
19.82000 212.000
19.86500 218.000
19.91000 231.000
19.95500 204.000
20.00000 236.000
20.04500 200.000
20.09000 236.000
20.13500 221.000
20.18000 233.000
20.22500 238.000
20.27000 221.000
20.31500 199.000
20.36000 216.000
20.40500 209.000
20.45000 225.000
20.49500 229.000
20.54000 245.000
20.58500 220.000
20.63000 212.000
20.67500 245.000
20.72000 223.000
20.76500 213.000
20.81000 233.000
20.85500 221.000
20.90000 198.000
20.94500 226.000
20.99000 246.000
21.03500 229.000
21.08000 242.000
21.12500 226.000
21.17000 246.000
21.21500 229.000
21.26000 247.000
21.30500 241.000
21.35000 250.000
21.39500 217.000
21.44000 228.000
21.48500 235.000
21.53000 236.000
21.57500 240.000
21.62000 247.000
21.66500 231.000
21.71000 227.000
21.75500 241.000
21.80000 228.000
21.84500 251.000
21.89000 256.000
21.93500 260.000
21.98000 252.000
22.02500 230.000
22.07000 238.000
22.11500 245.000
22.16000 227.000
22.20500 233.000
22.25000 220.000
22.29500 215.000
22.34000 234.000
22.38500 222.000
22.43000 241.000
22.47500 220.000
22.52000 264.000
22.56500 229.000
22.61000 240.000
22.65500 234.000
22.70000 221.000
22.74500 226.000
22.79000 233.000
22.83500 215.000
22.88000 230.000
22.92500 254.000
22.97000 248.000
23.01500 215.000
23.06000 224.000
23.10500 239.000
23.15000 257.000
23.19500 249.000
23.24000 237.000
23.28500 239.000
23.33000 236.000
23.37500 225.000
23.42000 259.000
23.46500 249.000
23.51000 237.000
23.55500 237.000
23.60000 256.000
23.64500 242.000
23.69000 265.000
23.73500 262.000
23.78000 246.000
23.82500 263.000
23.87000 241.000
23.91500 291.000
23.96000 256.000
24.00500 293.000
24.05000 296.000
24.09500 301.000
24.14000 297.000
24.18500 349.000
24.23000 374.000
24.27500 404.000
24.32000 417.000
24.36500 427.000
24.41000 373.000
24.45500 388.000
24.50000 365.000
24.54500 350.000
24.59000 315.000
24.63500 316.000
24.68000 295.000
24.72500 275.000
24.77000 283.000
24.81500 268.000
24.86000 261.000
24.90500 265.000
24.95000 273.000
24.99500 262.000
25.04000 230.000
25.08500 255.000
25.13000 267.000
25.17500 253.000
25.22000 250.000
25.26500 241.000
25.31000 242.000
25.35500 249.000
25.40000 226.000
25.44500 253.000
25.49000 229.000
25.53500 268.000
25.58000 244.000
25.62500 232.000
25.67000 256.000
25.71500 227.000
25.76000 228.000
25.80500 227.000
25.85000 232.000
25.89500 237.000
25.94000 219.000
25.98500 241.000
26.03000 255.000
26.07500 221.000
26.12000 257.000
26.16500 266.000
26.21000 198.000
26.25500 240.000
26.30000 254.000
26.34500 221.000
26.39000 240.000
26.43500 233.000
26.48000 236.000
26.52500 231.000
26.57000 214.000
26.61500 235.000
26.66000 227.000
26.70500 226.000
26.75000 224.000
26.79500 221.000
26.84000 234.000
26.88500 223.000
26.93000 234.000
26.97500 253.000
27.02000 229.000
27.06500 210.000
27.11000 222.000
27.15500 246.000
27.20000 206.000
27.24500 218.000
27.29000 210.000
27.33500 226.000
27.38000 238.000
27.42500 223.000
27.47000 230.000
27.51500 262.000
27.56000 245.000
27.60500 239.000
27.65000 283.000
27.69500 303.000
27.74000 295.000
27.78500 377.000
27.83000 423.000
27.87500 441.000
27.92000 537.000
27.96500 524.000
28.01000 543.000
28.05500 384.000
28.10000 319.000
28.14500 276.000
28.19000 251.000
28.23500 260.000
28.28000 239.000
28.32500 230.000
28.37000 241.000
28.41500 236.000
28.46000 209.000
28.50500 242.000
28.55000 200.000
28.59500 235.000
28.64000 206.000
28.68500 224.000
28.73000 222.000
28.77500 221.000
28.82000 196.000
28.86500 221.000
28.91000 213.000
28.95500 214.000
29.00000 203.000
29.04500 215.000
29.09000 214.000
29.13500 206.000
29.18000 201.000
29.22500 218.000
29.27000 223.000
29.31500 196.000
29.36000 181.000
29.40500 198.000
29.45000 196.000
29.49500 194.000
29.54000 200.000
29.58500 212.000
29.63000 218.000
29.67500 201.000
29.72000 192.000
29.76500 178.000
29.81000 204.000
29.85500 203.000
29.90000 197.000
29.94500 187.000
29.99000 204.000
30.03500 201.000
30.08000 202.000
30.12500 187.000
30.17000 203.000
30.21500 197.000
30.26000 200.000
30.30500 192.000
30.35000 225.000
30.39500 216.000
30.44000 212.000
30.48500 216.000
30.53000 231.000
30.57500 226.000
30.62000 199.000
30.66500 199.000
30.71000 231.000
30.75500 186.000
30.80000 208.000
30.84500 217.000
30.89000 210.000
30.93500 190.000
30.98000 195.000
31.02500 217.000
31.07000 213.000
31.11500 198.000
31.16000 176.000
31.20500 178.000
31.25000 194.000
31.29500 184.000
31.34000 203.000
31.38500 170.000
31.43000 180.000
31.47500 188.000
31.52000 158.000
31.56500 186.000
31.61000 175.000
31.65500 190.000
31.70000 179.000
31.74500 175.000
31.79000 202.000
31.83500 161.000
31.88000 176.000
31.92500 156.000
31.97000 191.000
32.01500 173.000
32.06000 161.000
32.10500 162.000
32.15000 171.000
32.19500 169.000
32.24000 184.000
32.28500 181.000
32.33000 156.000
32.37500 188.000
32.42000 171.000
32.46500 175.000
32.51000 180.000
32.55500 170.000
32.60000 158.000
32.64500 173.000
32.69000 171.000
32.73500 166.000
32.78000 172.000
32.82500 160.000
32.87000 162.000
32.91500 146.000
32.96000 188.000
33.00500 186.000
33.05000 149.000
33.09500 186.000
33.14000 163.000
33.18500 191.000
33.23000 149.000
33.27500 153.000
33.32000 171.000
33.36500 133.000
33.41000 150.000
33.45500 153.000
33.50000 144.000
33.54500 152.000
33.59000 137.000
33.63500 155.000
33.68000 165.000
33.72500 164.000
33.77000 157.000
33.81500 164.000
33.86000 164.000
33.90500 147.000
33.95000 146.000
33.99500 167.000
34.04000 158.000
34.08500 148.000
34.13000 139.000
34.17500 178.000
34.22000 136.000
34.26500 160.000
34.31000 158.000
34.35500 147.000
34.40000 167.000
34.44500 144.000
34.49000 143.000
34.53500 146.000
34.58000 142.000
34.62500 146.000
34.67000 141.000
34.71500 134.000
34.76000 146.000
34.80500 158.000
34.85000 155.000
34.89500 149.000
34.94000 149.000
34.98500 140.000
35.03000 138.000
35.07500 154.000
35.12000 157.000
35.16500 165.000
35.21000 153.000
35.25500 148.000
35.30000 145.000
35.34500 138.000
35.39000 143.000
35.43500 155.000
35.48000 150.000
35.52500 138.000
35.57000 145.000
35.61500 149.000
35.66000 160.000
35.70500 128.000
35.75000 138.000
35.79500 145.000
35.84000 143.000
35.88500 146.000
35.93000 149.000
35.97500 141.000
36.02000 154.000
36.06500 131.000
36.11000 144.000
36.15500 138.000
36.20000 145.000
36.24500 130.000
36.29000 140.000
36.33500 143.000
36.38000 155.000
36.42500 139.000
36.47000 144.000
36.51500 117.000
36.56000 121.000
36.60500 140.000
36.65000 121.000
36.69500 136.000
36.74000 132.000
36.78500 138.000
36.83000 143.000
36.87500 132.000
36.92000 133.000
36.96500 145.000
37.01000 124.000
37.05500 143.000
37.10000 143.000
37.14500 132.000
37.19000 140.000
37.23500 122.000
37.28000 126.000
37.32500 133.000
37.37000 138.000
37.41500 137.000
37.46000 136.000
37.50500 127.000
37.55000 143.000
37.59500 131.000
37.64000 132.000
37.68500 128.000
37.73000 133.000
37.77500 131.000
37.82000 110.000
37.86500 126.000
37.91000 121.000
37.95500 131.000
38.00000 145.000
38.04500 118.000
38.09000 141.000
38.13500 151.000
38.18000 115.000
38.22500 140.000
38.27000 140.000
38.31500 113.000
38.36000 129.000
38.40500 131.000
38.45000 128.000
38.49500 135.000
38.54000 141.000
38.58500 119.000
38.63000 130.000
38.67500 124.000
38.72000 133.000
38.76500 120.000
38.81000 130.000
38.85500 140.000
38.90000 128.000
38.94500 117.000
38.99000 135.000
39.03500 138.000
39.08000 133.000
39.12500 136.000
39.17000 127.000
39.21500 120.000
39.26000 146.000
39.30500 138.000
39.35000 133.000
39.39500 135.000
39.44000 111.000
39.48500 128.000
39.53000 128.000
39.57500 127.000
39.62000 127.000
39.66500 113.000
39.71000 145.000
39.75500 127.000
39.80000 122.000
39.84500 151.000
39.89000 121.000
39.93500 136.000
39.98000 133.000
40.02500 117.000
40.07000 139.000
40.11500 138.000
40.16000 113.000
40.20500 129.000
40.25000 124.000
40.29500 123.000
40.34000 125.000
40.38500 120.000
40.43000 112.000
40.47500 131.000
40.52000 128.000
40.56500 125.000
40.61000 145.000
40.65500 123.000
40.70000 123.000
40.74500 131.000
40.79000 133.000
40.83500 146.000
40.88000 128.000
40.92500 118.000
40.97000 126.000
41.01500 128.000
41.06000 126.000
41.10500 143.000
41.15000 119.000
41.19500 132.000
41.24000 127.000
41.28500 131.000
41.33000 122.000
41.37500 135.000
41.42000 140.000
41.46500 129.000
41.51000 123.000
41.55500 129.000
41.60000 142.000
41.64500 129.000
41.69000 130.000
41.73500 144.000
41.78000 129.000
41.82500 121.000
41.87000 126.000
41.91500 136.000
41.96000 124.000
42.00500 135.000
42.05000 140.000
42.09500 142.000
42.14000 134.000
42.18500 139.000
42.23000 131.000
42.27500 113.000
42.32000 141.000
42.36500 145.000
42.41000 136.000
42.45500 119.000
42.50000 136.000
42.54500 138.000
42.59000 127.000
42.63500 137.000
42.68000 117.000
42.72500 144.000
42.77000 119.000
42.81500 141.000
42.86000 140.000
42.90500 143.000
42.95000 114.000
42.99500 121.000
43.04000 136.000
43.08500 125.000
43.13000 130.000
43.17500 129.000
43.22000 128.000
43.26500 144.000
43.31000 157.000
43.35500 155.000
43.40000 133.000
43.44500 152.000
43.49000 127.000
43.53500 135.000
43.58000 135.000
43.62500 141.000
43.67000 146.000
43.71500 131.000
43.76000 121.000
43.80500 136.000
43.85000 131.000
43.89500 138.000
43.94000 146.000
43.98500 147.000
44.03000 151.000
44.07500 143.000
44.12000 121.000
44.16500 138.000
44.21000 127.000
44.25500 140.000
44.30000 140.000
44.34500 122.000
44.39000 144.000
44.43500 134.000
44.48000 135.000
44.52500 141.000
44.57000 125.000
44.61500 137.000
44.66000 122.000
44.70500 130.000
44.75000 117.000
44.79500 121.000
44.84000 135.000
44.88500 146.000
44.93000 134.000
44.97500 141.000
45.02000 116.000
45.06500 117.000
45.11000 129.000
45.15500 126.000
45.20000 115.000
45.24500 141.000
45.29000 138.000
45.33500 136.000
45.38000 134.000
45.42500 113.000
45.47000 128.000
45.51500 126.000
45.56000 129.000
45.60500 128.000
45.65000 127.000
45.69500 116.000
45.74000 108.000
45.78500 113.000
45.83000 132.000
45.87500 131.000
45.92000 152.000
45.96500 134.000
46.01000 127.000
46.05500 123.000
46.10000 127.000
46.14500 138.000
46.19000 117.000
46.23500 124.000
46.28000 142.000
46.32500 118.000
46.37000 122.000
46.41500 125.000
46.46000 132.000
46.50500 123.000
46.55000 132.000
46.59500 128.000
46.64000 128.000
46.68500 119.000
46.73000 130.000
46.77500 126.000
46.82000 121.000
46.86500 127.000
46.91000 112.000
46.95500 130.000
47.00000 127.000
47.04500 122.000
47.09000 136.000
47.13500 125.000
47.18000 123.000
47.22500 112.000
47.27000 115.000
47.31500 151.000
47.36000 122.000
47.40500 128.000
47.45000 127.000
47.49500 134.000
47.54000 118.000
47.58500 129.000
47.63000 121.000
47.67500 126.000
47.72000 121.000
47.76500 139.000
47.81000 137.000
47.85500 138.000
47.90000 112.000
47.94500 123.000
47.99000 129.000
48.03500 112.000
48.08000 128.000
48.12500 122.000
48.17000 113.000
48.21500 141.000
48.26000 132.000
48.30500 118.000
48.35000 109.000
48.39500 116.000
48.44000 131.000
48.48500 121.000
48.53000 118.000
48.57500 120.000
48.62000 112.000
48.66500 114.000
48.71000 135.000
48.75500 118.000
48.80000 118.000
48.84500 133.000
48.89000 124.000
48.93500 121.000
48.98000 133.000
49.02500 135.000
49.07000 116.000
49.11500 118.000
49.16000 119.000
49.20500 113.000
49.25000 116.000
49.29500 126.000
49.34000 133.000
49.38500 132.000
49.43000 117.000
49.47500 117.000
49.52000 115.000
49.56500 120.000
49.61000 118.000
49.65500 136.000
49.70000 116.000
49.74500 104.000
49.79000 114.000
49.83500 115.000
49.88000 116.000
49.92500 114.000
49.97000 112.000
50.01500 127.000
50.06000 108.000
50.10500 108.000
50.15000 118.000
50.19500 123.000
50.24000 118.000
50.28500 116.000
50.33000 109.000
50.37500 115.000
50.42000 114.000
50.46500 124.000
50.51000 113.000
50.55500 115.000
50.60000 120.000
50.64500 114.000
50.69000 120.000
50.73500 124.000
50.78000 123.000
50.82500 119.000
50.87000 136.000
50.91500 115.000
50.96000 113.000
51.00500 117.000
51.05000 120.000
51.09500 129.000
51.14000 131.000
51.18500 100.000
51.23000 106.000
51.27500 117.000
51.32000 102.000
51.36500 108.000
51.41000 129.000
51.45500 119.000
51.50000 126.000
51.54500 118.000
51.59000 125.000
51.63500 129.000
51.68000 122.000
51.72500 109.000
51.77000 133.000
51.81500 108.000
51.86000 122.000
51.90500 127.000
51.95000 119.000
51.99500 118.000
52.04000 124.000
52.08500 111.000
52.13000 105.000
52.17500 124.000
52.22000 112.000
52.26500 116.000
52.31000 100.000
52.35500 108.000
52.40000 113.000
52.44500 111.000
52.49000 111.000
52.53500 112.000
52.58000 117.000
52.62500 116.000
52.67000 117.000
52.71500 122.000
52.76000 118.000
52.80500 122.000
52.85000 106.000
52.89500 125.000
52.94000 124.000
52.98500 102.000
53.03000 108.000
53.07500 112.000
53.12000 109.000
53.16500 124.000
53.21000 136.000
53.25500 126.000
53.30000 109.000
53.34500 122.000
53.39000 113.000
53.43500 111.000
53.48000 117.000
53.52500 106.000
53.57000 113.000
53.61500 111.000
53.66000 113.000
53.70500 106.000
53.75000 115.000
53.79500 127.000
53.84000 119.000
53.88500 100.000
53.93000 104.000
53.97500 117.000
54.02000 121.000
54.06500 96.000
54.11000 129.000
54.15500 103.000
54.20000 116.000
54.24500 109.000
54.29000 102.000
54.33500 110.000
54.38000 108.000
54.42500 114.000
54.47000 98.000
54.51500 114.000
54.56000 106.000
54.60500 110.000
54.65000 132.000
54.69500 110.000
54.74000 118.000
54.78500 91.000
54.83000 116.000
54.87500 116.000
54.92000 120.000
54.96500 115.000
55.01000 108.000
55.05500 109.000
55.10000 104.000
55.14500 101.000
55.19000 112.000
55.23500 99.000
55.28000 112.000
55.32500 108.000
55.37000 110.000
55.41500 94.000
55.46000 107.000
55.50500 119.000
55.55000 108.000
55.59500 105.000
55.64000 116.000
55.68500 111.000
55.73000 94.000
55.77500 102.000
55.82000 109.000
55.86500 93.000
55.91000 111.000
55.95500 116.000
56.00000 107.000
56.04500 109.000
56.09000 99.000
56.13500 113.000
56.18000 111.000
56.22500 110.000
56.27000 94.000
56.31500 87.000
56.36000 102.000
56.40500 113.000
56.45000 105.000
56.49500 111.000
56.54000 114.000
56.58500 95.000
56.63000 92.000
56.67500 115.000
56.72000 105.000
56.76500 92.000
56.81000 111.000
56.85500 105.000
56.90000 108.000
56.94500 115.000
56.99000 105.000
57.03500 97.000
57.08000 111.000
57.12500 111.000
57.17000 90.000
57.21500 101.000
57.26000 105.000
57.30500 101.000
57.35000 106.000
57.39500 94.000
57.44000 88.000
57.48500 96.000
57.53000 107.000
57.57500 121.000
57.62000 99.000
57.66500 122.000
57.71000 112.000
57.75500 121.000
57.80000 100.000
57.84500 94.000
57.89000 93.000
57.93500 113.000
57.98000 100.000
58.02500 112.000
58.07000 108.000
58.11500 112.000
58.16000 113.000
58.20500 102.000
58.25000 106.000
58.29500 98.000
58.34000 94.000
58.38500 108.000
58.43000 113.000
58.47500 95.000
58.52000 105.000
58.56500 111.000
58.61000 106.000
58.65500 98.000
58.70000 101.000
58.74500 89.000
58.79000 92.000
58.83500 98.000
58.88000 110.000
58.92500 92.000
58.97000 96.000
59.01500 87.000
59.06000 102.000
59.10500 103.000
59.15000 98.000
59.19500 106.000
59.24000 108.000
59.28500 100.000
59.33000 84.000
59.37500 104.000
59.42000 104.000
59.46500 96.000
59.51000 107.000
59.55500 103.000
59.60000 84.000
59.64500 89.000
59.69000 87.000
59.73500 90.000
59.78000 101.000
59.82500 95.000
59.87000 96.000
59.91500 96.000
59.96000 97.000
60.00500 93.000
60.05000 114.000
60.09500 88.000
60.14000 97.000
60.18500 100.000
60.23000 101.000
60.27500 95.000
60.32000 85.000
60.36500 95.000
60.41000 98.000
60.45500 97.000
60.50000 87.000
60.54500 91.000
60.59000 97.000
60.63500 113.000
60.68000 101.000
60.72500 89.000
60.77000 98.000
60.81500 112.000
60.86000 90.000
60.90500 117.000
60.95000 109.000
60.99500 88.000
61.04000 94.000
61.08500 99.000
61.13000 99.000
61.17500 90.000
61.22000 98.000
61.26500 92.000
61.31000 93.000
61.35500 81.000
61.40000 88.000
61.44500 114.000
61.49000 95.000
61.53500 100.000
61.58000 97.000
61.62500 93.000
61.67000 96.000
61.71500 99.000
61.76000 107.000
61.80500 93.000
61.85000 107.000
61.89500 95.000
61.94000 90.000
61.98500 94.000