File: ISoD/xrd_data/HSC080.xy
2.00000 2.000
2.04500 2.000
2.09000 1.000
2.13500 1.000
2.18000 3.000
2.22500 3.000
2.27000 4.000
2.31500 4.000
2.36000 2.000
2.40500 2.000
2.45000 2.000
2.49500 3.000
2.54000 4.000
2.58500 2.000
2.63000 2.000
2.67500 1.000
2.72000 1.000
2.76500 1.000
2.81000 2.000
2.85500 2.000
2.90000 5.000
2.94500 2.000
2.99000 2.000
3.03500 2.000
3.08000 1.000
3.12500 9.000
3.17000 12.000
3.21500 64.000
3.26000 197.000
3.30500 292.000
3.35000 310.000
3.39500 299.000
3.44000 298.000
3.48500 290.000
3.53000 264.000
3.57500 285.000
3.62000 288.000
3.66500 312.000
3.71000 273.000
3.75500 287.000
3.80000 257.000
3.84500 250.000
3.89000 271.000
3.93500 304.000
3.98000 281.000
4.02500 277.000
4.07000 291.000
4.11500 284.000
4.16000 277.000
4.20500 282.000
4.25000 297.000
4.29500 274.000
4.34000 289.000
4.38500 270.000
4.43000 281.000
4.47500 270.000
4.52000 280.000
4.56500 292.000
4.61000 277.000
4.65500 303.000
4.70000 284.000
4.74500 281.000
4.79000 296.000
4.83500 287.000
4.88000 299.000
4.92500 264.000
4.97000 271.000
5.01500 277.000
5.06000 301.000
5.10500 282.000
5.15000 316.000
5.19500 310.000
5.24000 298.000
5.28500 313.000
5.33000 309.000
5.37500 286.000
5.42000 283.000
5.46500 314.000
5.51000 296.000
5.55500 310.000
5.60000 315.000
5.64500 325.000
5.69000 332.000
5.73500 326.000
5.78000 299.000
5.82500 307.000
5.87000 316.000
5.91500 319.000
5.96000 322.000
6.00500 328.000
6.05000 324.000
6.09500 331.000
6.14000 310.000
6.18500 326.000
6.23000 312.000
6.27500 324.000
6.32000 328.000
6.36500 293.000
6.41000 333.000
6.45500 334.000
6.50000 318.000
6.54500 325.000
6.59000 334.000
6.63500 335.000
6.68000 353.000
6.72500 329.000
6.77000 307.000
6.81500 297.000
6.86000 319.000
6.90500 328.000
6.95000 312.000
6.99500 330.000
7.04000 332.000
7.08500 341.000
7.13000 336.000
7.17500 308.000
7.22000 331.000
7.26500 307.000
7.31000 315.000
7.35500 338.000
7.40000 347.000
7.44500 307.000
7.49000 317.000
7.53500 309.000
7.58000 321.000
7.62500 316.000
7.67000 314.000
7.71500 330.000
7.76000 309.000
7.80500 337.000
7.85000 296.000
7.89500 294.000
7.94000 322.000
7.98500 319.000
8.03000 324.000
8.07500 305.000
8.12000 303.000
8.16500 332.000
8.21000 321.000
8.25500 320.000
8.30000 368.000
8.34500 357.000
8.39000 359.000
8.43500 329.000
8.48000 314.000
8.52500 324.000
8.57000 298.000
8.61500 281.000
8.66000 320.000
8.70500 327.000
8.75000 315.000
8.79500 295.000
8.84000 277.000
8.88500 302.000
8.93000 290.000
8.97500 313.000
9.02000 304.000
9.06500 289.000
9.11000 297.000
9.15500 329.000
9.20000 293.000
9.24500 286.000
9.29000 298.000
9.33500 280.000
9.38000 293.000
9.42500 317.000
9.47000 279.000
9.51500 283.000
9.56000 287.000
9.60500 272.000
9.65000 280.000
9.69500 280.000
9.74000 269.000
9.78500 271.000
9.83000 261.000
9.87500 271.000
9.92000 292.000
9.96500 286.000
10.01000 278.000
10.05500 291.000
10.10000 266.000
10.14500 270.000
10.19000 260.000
10.23500 261.000
10.28000 276.000
10.32500 237.000
10.37000 300.000
10.41500 263.000
10.46000 280.000
10.50500 277.000
10.55000 289.000
10.59500 293.000
10.64000 255.000
10.68500 286.000
10.73000 289.000
10.77500 266.000
10.82000 279.000
10.86500 268.000
10.91000 276.000
10.95500 299.000
11.00000 290.000
11.04500 298.000
11.09000 268.000
11.13500 258.000
11.18000 293.000
11.22500 241.000
11.27000 251.000
11.31500 283.000
11.36000 289.000
11.40500 258.000
11.45000 284.000
11.49500 282.000
11.54000 279.000
11.58500 262.000
11.63000 271.000
11.67500 284.000
11.72000 298.000
11.76500 276.000
11.81000 283.000
11.85500 296.000
11.90000 274.000
11.94500 274.000
11.99000 288.000
12.03500 257.000
12.08000 267.000
12.12500 271.000
12.17000 272.000
12.21500 258.000
12.26000 275.000
12.30500 292.000
12.35000 273.000
12.39500 302.000
12.44000 268.000
12.48500 253.000
12.53000 276.000
12.57500 285.000
12.62000 264.000
12.66500 287.000
12.71000 248.000
12.75500 279.000
12.80000 263.000
12.84500 286.000
12.89000 259.000
12.93500 278.000
12.98000 284.000
13.02500 279.000
13.07000 304.000
13.11500 267.000
13.16000 283.000
13.20500 294.000
13.25000 263.000
13.29500 261.000
13.34000 291.000
13.38500 280.000
13.43000 269.000
13.47500 271.000
13.52000 281.000
13.56500 287.000
13.61000 300.000
13.65500 293.000
13.70000 290.000
13.74500 259.000
13.79000 266.000
13.83500 275.000
13.88000 297.000
13.92500 270.000
13.97000 283.000
14.01500 276.000
14.06000 295.000
14.10500 293.000
14.15000 299.000
14.19500 286.000
14.24000 265.000
14.28500 295.000
14.33000 280.000
14.37500 291.000
14.42000 281.000
14.46500 280.000
14.51000 292.000
14.55500 297.000
14.60000 277.000
14.64500 282.000
14.69000 285.000
14.73500 269.000
14.78000 280.000
14.82500 292.000
14.87000 262.000
14.91500 267.000
14.96000 295.000
15.00500 292.000
15.05000 303.000
15.09500 303.000
15.14000 282.000
15.18500 272.000
15.23000 298.000
15.27500 289.000
15.32000 280.000
15.36500 286.000
15.41000 288.000
15.45500 305.000
15.50000 289.000
15.54500 292.000
15.59000 283.000
15.63500 306.000
15.68000 312.000
15.72500 293.000
15.77000 294.000
15.81500 271.000
15.86000 289.000
15.90500 298.000
15.95000 304.000
15.99500 295.000
16.04000 302.000
16.08500 317.000
16.13000 294.000
16.17500 283.000
16.22000 271.000
16.26500 295.000
16.31000 283.000
16.35500 285.000
16.40000 318.000
16.44500 296.000
16.49000 299.000
16.53500 304.000
16.58000 277.000
16.62500 319.000
16.67000 325.000
16.71500 302.000
16.76000 300.000
16.80500 322.000
16.85000 314.000
16.89500 309.000
16.94000 324.000
16.98500 335.000
17.03000 304.000
17.07500 339.000
17.12000 307.000
17.16500 331.000
17.21000 336.000
17.25500 288.000
17.30000 314.000
17.34500 297.000
17.39000 325.000
17.43500 342.000
17.48000 325.000
17.52500 338.000
17.57000 323.000
17.61500 291.000
17.66000 338.000
17.70500 326.000
17.75000 308.000
17.79500 311.000
17.84000 338.000
17.88500 343.000
17.93000 320.000
17.97500 370.000
18.02000 339.000
18.06500 327.000
18.11000 325.000
18.15500 328.000
18.20000 326.000
18.24500 346.000
18.29000 337.000
18.33500 322.000
18.38000 346.000
18.42500 351.000
18.47000 356.000
18.51500 352.000
18.56000 375.000
18.60500 322.000
18.65000 362.000
18.69500 330.000
18.74000 327.000
18.78500 333.000
18.83000 332.000
18.87500 354.000
18.92000 379.000
18.96500 356.000
19.01000 361.000
19.05500 393.000
19.10000 377.000
19.14500 325.000
19.19000 360.000
19.23500 360.000
19.28000 339.000
19.32500 365.000
19.37000 366.000
19.41500 355.000
19.46000 381.000
19.50500 358.000
19.55000 365.000
19.59500 366.000
19.64000 337.000
19.68500 359.000
19.73000 373.000
19.77500 384.000
19.82000 377.000
19.86500 377.000
19.91000 382.000
19.95500 369.000
20.00000 391.000
20.04500 387.000
20.09000 378.000
20.13500 407.000
20.18000 392.000
20.22500 413.000
20.27000 382.000
20.31500 402.000
20.36000 402.000
20.40500 401.000
20.45000 389.000
20.49500 400.000
20.54000 390.000
20.58500 415.000
20.63000 403.000
20.67500 393.000
20.72000 401.000
20.76500 401.000
20.81000 434.000
20.85500 404.000
20.90000 385.000
20.94500 405.000
20.99000 406.000
21.03500 406.000
21.08000 402.000
21.12500 412.000
21.17000 400.000
21.21500 422.000
21.26000 413.000
21.30500 435.000
21.35000 422.000
21.39500 422.000
21.44000 427.000
21.48500 414.000
21.53000 407.000
21.57500 456.000
21.62000 422.000
21.66500 431.000
21.71000 461.000
21.75500 423.000
21.80000 474.000
21.84500 433.000
21.89000 439.000
21.93500 444.000
21.98000 435.000
22.02500 451.000
22.07000 415.000
22.11500 422.000
22.16000 408.000
22.20500 434.000
22.25000 435.000
22.29500 430.000
22.34000 458.000
22.38500 447.000
22.43000 428.000
22.47500 466.000
22.52000 450.000
22.56500 413.000
22.61000 461.000
22.65500 442.000
22.70000 434.000
22.74500 442.000
22.79000 432.000
22.83500 467.000
22.88000 411.000
22.92500 420.000
22.97000 464.000
23.01500 482.000
23.06000 468.000
23.10500 448.000
23.15000 439.000
23.19500 468.000
23.24000 455.000
23.28500 445.000
23.33000 422.000
23.37500 461.000
23.42000 436.000
23.46500 404.000
23.51000 468.000
23.55500 463.000
23.60000 455.000
23.64500 446.000
23.69000 475.000
23.73500 433.000
23.78000 457.000
23.82500 469.000
23.87000 449.000
23.91500 449.000
23.96000 418.000
24.00500 438.000
24.05000 459.000
24.09500 425.000
24.14000 428.000
24.18500 465.000
24.23000 426.000
24.27500 441.000
24.32000 455.000
24.36500 414.000
24.41000 432.000
24.45500 425.000
24.50000 444.000
24.54500 442.000
24.59000 449.000
24.63500 431.000
24.68000 433.000
24.72500 430.000
24.77000 408.000
24.81500 442.000
24.86000 455.000
24.90500 435.000
24.95000 414.000
24.99500 395.000
25.04000 432.000
25.08500 411.000
25.13000 415.000
25.17500 454.000
25.22000 438.000
25.26500 420.000
25.31000 440.000
25.35500 390.000
25.40000 419.000
25.44500 394.000
25.49000 415.000
25.53500 402.000
25.58000 390.000
25.62500 437.000
25.67000 417.000
25.71500 414.000
25.76000 417.000
25.80500 419.000
25.85000 383.000
25.89500 407.000
25.94000 411.000
25.98500 379.000
26.03000 413.000
26.07500 454.000
26.12000 398.000
26.16500 400.000
26.21000 433.000
26.25500 441.000
26.30000 376.000
26.34500 390.000
26.39000 378.000
26.43500 417.000
26.48000 397.000
26.52500 411.000
26.57000 395.000
26.61500 359.000
26.66000 361.000
26.70500 385.000
26.75000 393.000
26.79500 388.000
26.84000 366.000
26.88500 363.000
26.93000 382.000
26.97500 408.000
27.02000 354.000
27.06500 358.000
27.11000 401.000
27.15500 365.000
27.20000 366.000
27.24500 338.000
27.29000 358.000
27.33500 332.000
27.38000 358.000
27.42500 353.000
27.47000 354.000
27.51500 359.000
27.56000 365.000
27.60500 350.000
27.65000 343.000
27.69500 356.000
27.74000 377.000
27.78500 356.000
27.83000 352.000
27.87500 378.000
27.92000 337.000
27.96500 347.000
28.01000 344.000
28.05500 340.000
28.10000 366.000
28.14500 349.000
28.19000 360.000
28.23500 332.000
28.28000 333.000
28.32500 351.000
28.37000 349.000
28.41500 332.000
28.46000 310.000
28.50500 336.000
28.55000 323.000
28.59500 346.000
28.64000 334.000
28.68500 314.000
28.73000 325.000
28.77500 328.000
28.82000 331.000
28.86500 319.000
28.91000 353.000
28.95500 320.000
29.00000 320.000
29.04500 316.000
29.09000 322.000
29.13500 321.000
29.18000 336.000
29.22500 337.000
29.27000 309.000
29.31500 318.000
29.36000 330.000
29.40500 340.000
29.45000 308.000
29.49500 331.000
29.54000 314.000
29.58500 307.000
29.63000 306.000
29.67500 312.000
29.72000 294.000
29.76500 280.000
29.81000 286.000
29.85500 307.000
29.90000 305.000
29.94500 291.000
29.99000 324.000
30.03500 309.000
30.08000 311.000
30.12500 309.000
30.17000 344.000
30.21500 295.000
30.26000 326.000
30.30500 296.000
30.35000 328.000
30.39500 299.000
30.44000 313.000
30.48500 288.000
30.53000 263.000
30.57500 278.000
30.62000 285.000
30.66500 298.000
30.71000 260.000
30.75500 312.000
30.80000 285.000
30.84500 284.000
30.89000 290.000
30.93500 252.000
30.98000 258.000
31.02500 287.000
31.07000 291.000
31.11500 270.000
31.16000 240.000
31.20500 251.000
31.25000 265.000
31.29500 264.000
31.34000 282.000
31.38500 267.000
31.43000 293.000
31.47500 269.000
31.52000 257.000
31.56500 261.000
31.61000 254.000
31.65500 247.000
31.70000 285.000
31.74500 285.000
31.79000 257.000
31.83500 244.000
31.88000 239.000
31.92500 243.000
31.97000 234.000
32.01500 261.000
32.06000 265.000
32.10500 232.000
32.15000 256.000
32.19500 229.000
32.24000 265.000
32.28500 228.000
32.33000 246.000
32.37500 240.000
32.42000 259.000
32.46500 242.000
32.51000 247.000
32.55500 261.000
32.60000 230.000
32.64500 225.000
32.69000 238.000
32.73500 240.000
32.78000 226.000
32.82500 216.000
32.87000 221.000
32.91500 224.000
32.96000 237.000
33.00500 244.000
33.05000 229.000
33.09500 222.000
33.14000 224.000
33.18500 229.000
33.23000 238.000
33.27500 214.000
33.32000 213.000
33.36500 207.000
33.41000 225.000
33.45500 248.000
33.50000 228.000
33.54500 214.000
33.59000 216.000
33.63500 221.000
33.68000 233.000
33.72500 207.000
33.77000 198.000
33.81500 200.000
33.86000 216.000
33.90500 215.000
33.95000 197.000
33.99500 227.000
34.04000 228.000
34.08500 204.000
34.13000 234.000
34.17500 199.000
34.22000 213.000
34.26500 219.000
34.31000 196.000
34.35500 215.000
34.40000 192.000
34.44500 225.000
34.49000 217.000
34.53500 207.000
34.58000 186.000
34.62500 206.000
34.67000 197.000
34.71500 206.000
34.76000 192.000
34.80500 202.000
34.85000 208.000
34.89500 206.000
34.94000 205.000
34.98500 204.000
35.03000 180.000
35.07500 194.000
35.12000 186.000
35.16500 221.000
35.21000 190.000
35.25500 186.000
35.30000 205.000
35.34500 196.000
35.39000 188.000
35.43500 188.000
35.48000 168.000
35.52500 206.000
35.57000 188.000
35.61500 183.000
35.66000 192.000
35.70500 167.000
35.75000 186.000
35.79500 171.000
35.84000 181.000
35.88500 188.000
35.93000 178.000
35.97500 184.000
36.02000 159.000
36.06500 192.000
36.11000 183.000
36.15500 203.000
36.20000 184.000
36.24500 175.000
36.29000 206.000
36.33500 182.000
36.38000 179.000
36.42500 194.000
36.47000 166.000
36.51500 159.000
36.56000 174.000
36.60500 169.000
36.65000 182.000
36.69500 181.000
36.74000 195.000
36.78500 174.000
36.83000 154.000
36.87500 163.000
36.92000 160.000
36.96500 158.000
37.01000 182.000
37.05500 179.000
37.10000 174.000
37.14500 168.000
37.19000 158.000
37.23500 151.000
37.28000 176.000
37.32500 168.000
37.37000 150.000
37.41500 160.000
37.46000 167.000
37.50500 173.000
37.55000 145.000
37.59500 162.000
37.64000 158.000
37.68500 157.000
37.73000 150.000
37.77500 152.000
37.82000 152.000
37.86500 155.000
37.91000 137.000
37.95500 167.000
38.00000 154.000
38.04500 148.000
38.09000 172.000
38.13500 149.000
38.18000 165.000
38.22500 143.000
38.27000 157.000
38.31500 163.000
38.36000 174.000
38.40500 179.000
38.45000 155.000
38.49500 163.000
38.54000 170.000
38.58500 135.000
38.63000 164.000
38.67500 162.000
38.72000 159.000
38.76500 166.000
38.81000 148.000
38.85500 149.000
38.90000 177.000
38.94500 157.000
38.99000 138.000
39.03500 156.000
39.08000 155.000
39.12500 159.000
39.17000 130.000
39.21500 166.000
39.26000 142.000
39.30500 151.000
39.35000 162.000
39.39500 156.000
39.44000 158.000
39.48500 155.000
39.53000 120.000
39.57500 145.000
39.62000 159.000
39.66500 140.000
39.71000 151.000
39.75500 153.000
39.80000 175.000
39.84500 146.000
39.89000 154.000
39.93500 155.000
39.98000 146.000
40.02500 154.000
40.07000 147.000
40.11500 142.000
40.16000 162.000
40.20500 141.000
40.25000 151.000
40.29500 146.000
40.34000 153.000
40.38500 145.000
40.43000 156.000
40.47500 144.000
40.52000 152.000
40.56500 151.000
40.61000 140.000
40.65500 123.000
40.70000 134.000
40.74500 144.000
40.79000 136.000
40.83500 157.000
40.88000 145.000
40.92500 147.000
40.97000 149.000
41.01500 155.000
41.06000 133.000
41.10500 160.000
41.15000 150.000
41.19500 151.000
41.24000 127.000
41.28500 139.000
41.33000 142.000
41.37500 144.000
41.42000 151.000
41.46500 144.000
41.51000 143.000
41.55500 139.000
41.60000 140.000
41.64500 148.000
41.69000 145.000
41.73500 134.000
41.78000 136.000
41.82500 144.000
41.87000 137.000
41.91500 128.000
41.96000 118.000
42.00500 135.000
42.05000 138.000
42.09500 146.000
42.14000 136.000
42.18500 145.000
42.23000 143.000
42.27500 147.000
42.32000 143.000
42.36500 143.000
42.41000 148.000
42.45500 128.000
42.50000 140.000
42.54500 151.000
42.59000 145.000
42.63500 146.000
42.68000 141.000
42.72500 132.000
42.77000 151.000
42.81500 163.000
42.86000 148.000
42.90500 139.000
42.95000 127.000
42.99500 144.000
43.04000 144.000
43.08500 145.000
43.13000 135.000
43.17500 147.000
43.22000 133.000
43.26500 127.000
43.31000 164.000
43.35500 152.000
43.40000 132.000
43.44500 138.000
43.49000 134.000
43.53500 139.000
43.58000 135.000
43.62500 146.000
43.67000 164.000
43.71500 135.000
43.76000 140.000
43.80500 135.000
43.85000 163.000
43.89500 143.000
43.94000 141.000
43.98500 140.000
44.03000 162.000
44.07500 136.000
44.12000 160.000
44.16500 142.000
44.21000 156.000
44.25500 136.000
44.30000 120.000
44.34500 143.000
44.39000 146.000
44.43500 134.000
44.48000 140.000
44.52500 136.000
44.57000 124.000
44.61500 147.000
44.66000 132.000
44.70500 129.000
44.75000 149.000
44.79500 126.000
44.84000 143.000
44.88500 143.000
44.93000 157.000
44.97500 130.000
45.02000 134.000
45.06500 149.000
45.11000 156.000
45.15500 158.000
45.20000 150.000
45.24500 126.000
45.29000 150.000
45.33500 136.000
45.38000 145.000
45.42500 161.000
45.47000 150.000
45.51500 155.000
45.56000 131.000
45.60500 142.000
45.65000 135.000
45.69500 133.000
45.74000 125.000
45.78500 120.000
45.83000 141.000
45.87500 138.000
45.92000 127.000
45.96500 140.000
46.01000 133.000
46.05500 138.000
46.10000 138.000
46.14500 120.000
46.19000 122.000
46.23500 137.000
46.28000 147.000
46.32500 142.000
46.37000 146.000
46.41500 137.000
46.46000 142.000
46.50500 122.000
46.55000 140.000
46.59500 141.000
46.64000 140.000
46.68500 134.000
46.73000 149.000
46.77500 135.000
46.82000 138.000
46.86500 131.000
46.91000 133.000
46.95500 134.000
47.00000 129.000
47.04500 137.000
47.09000 141.000
47.13500 131.000
47.18000 136.000
47.22500 128.000
47.27000 139.000
47.31500 136.000
47.36000 146.000
47.40500 125.000
47.45000 120.000
47.49500 128.000
47.54000 138.000
47.58500 141.000
47.63000 130.000
47.67500 126.000
47.72000 119.000
47.76500 113.000
47.81000 124.000
47.85500 132.000
47.90000 132.000
47.94500 132.000
47.99000 135.000
48.03500 141.000
48.08000 119.000
48.12500 144.000
48.17000 121.000
48.21500 130.000
48.26000 128.000
48.30500 134.000
48.35000 126.000
48.39500 132.000
48.44000 143.000
48.48500 134.000
48.53000 142.000
48.57500 129.000
48.62000 117.000
48.66500 134.000
48.71000 125.000
48.75500 124.000
48.80000 144.000
48.84500 127.000
48.89000 126.000
48.93500 120.000
48.98000 112.000
49.02500 123.000
49.07000 139.000
49.11500 133.000
49.16000 136.000
49.20500 137.000
49.25000 126.000
49.29500 139.000
49.34000 140.000
49.38500 119.000
49.43000 118.000
49.47500 143.000
49.52000 134.000
49.56500 128.000
49.61000 124.000
49.65500 127.000
49.70000 148.000
49.74500 143.000
49.79000 126.000
49.83500 134.000
49.88000 118.000
49.92500 108.000
49.97000 143.000
50.01500 152.000
50.06000 142.000
50.10500 125.000
50.15000 122.000
50.19500 129.000
50.24000 115.000
50.28500 104.000
50.33000 123.000
50.37500 133.000
50.42000 119.000
50.46500 122.000
50.51000 118.000
50.55500 131.000
50.60000 137.000
50.64500 130.000
50.69000 121.000
50.73500 122.000
50.78000 110.000
50.82500 117.000
50.87000 117.000
50.91500 126.000
50.96000 119.000
51.00500 137.000
51.05000 124.000
51.09500 132.000
51.14000 119.000
51.18500 136.000
51.23000 121.000
51.27500 106.000
51.32000 120.000
51.36500 118.000
51.41000 125.000
51.45500 115.000
51.50000 127.000
51.54500 118.000
51.59000 129.000
51.63500 125.000
51.68000 120.000
51.72500 124.000
51.77000 115.000
51.81500 124.000
51.86000 128.000
51.90500 127.000
51.95000 117.000
51.99500 119.000
52.04000 131.000
52.08500 120.000
52.13000 129.000
52.17500 136.000
52.22000 120.000
52.26500 131.000
52.31000 112.000
52.35500 114.000
52.40000 123.000
52.44500 121.000
52.49000 121.000
52.53500 128.000
52.58000 119.000
52.62500 113.000
52.67000 149.000
52.71500 123.000
52.76000 121.000
52.80500 129.000
52.85000 123.000
52.89500 119.000
52.94000 114.000
52.98500 125.000
53.03000 107.000
53.07500 128.000
53.12000 111.000
53.16500 124.000
53.21000 125.000
53.25500 118.000
53.30000 118.000
53.34500 114.000
53.39000 121.000
53.43500 101.000
53.48000 130.000
53.52500 114.000
53.57000 135.000
53.61500 134.000
53.66000 117.000
53.70500 114.000
53.75000 124.000
53.79500 110.000
53.84000 131.000
53.88500 120.000
53.93000 116.000
53.97500 108.000
54.02000 112.000
54.06500 107.000
54.11000 127.000
54.15500 113.000
54.20000 124.000
54.24500 104.000
54.29000 120.000
54.33500 132.000
54.38000 114.000
54.42500 133.000
54.47000 121.000
54.51500 130.000
54.56000 117.000
54.60500 101.000
54.65000 104.000
54.69500 119.000
54.74000 127.000
54.78500 121.000
54.83000 120.000
54.87500 119.000
54.92000 117.000
54.96500 121.000
55.01000 110.000
55.05500 119.000
55.10000 111.000
55.14500 124.000
55.19000 128.000
55.23500 117.000
55.28000 109.000
55.32500 114.000
55.37000 103.000
55.41500 126.000
55.46000 111.000
55.50500 127.000
55.55000 106.000
55.59500 126.000
55.64000 126.000
55.68500 106.000
55.73000 109.000
55.77500 104.000
55.82000 116.000
55.86500 125.000
55.91000 102.000
55.95500 106.000
56.00000 117.000
56.04500 125.000
56.09000 113.000
56.13500 108.000
56.18000 127.000
56.22500 129.000
56.27000 122.000
56.31500 119.000
56.36000 121.000
56.40500 118.000
56.45000 128.000
56.49500 123.000
56.54000 128.000
56.58500 130.000
56.63000 112.000
56.67500 116.000
56.72000 127.000
56.76500 125.000
56.81000 111.000
56.85500 108.000
56.90000 124.000
56.94500 115.000
56.99000 99.000
57.03500 123.000
57.08000 114.000
57.12500 133.000
57.17000 131.000
57.21500 106.000
57.26000 118.000
57.30500 107.000
57.35000 121.000
57.39500 119.000
57.44000 123.000
57.48500 118.000
57.53000 121.000
57.57500 105.000
57.62000 103.000
57.66500 119.000
57.71000 120.000
57.75500 136.000
57.80000 122.000
57.84500 111.000
57.89000 114.000
57.93500 104.000
57.98000 118.000
58.02500 106.000
58.07000 112.000
58.11500 118.000
58.16000 110.000
58.20500 106.000
58.25000 109.000
58.29500 109.000
58.34000 115.000
58.38500 110.000
58.43000 127.000
58.47500 114.000
58.52000 107.000
58.56500 106.000
58.61000 110.000
58.65500 119.000
58.70000 100.000
58.74500 133.000
58.79000 120.000
58.83500 119.000
58.88000 108.000
58.92500 110.000
58.97000 107.000
59.01500 119.000
59.06000 139.000
59.10500 92.000
59.15000 117.000
59.19500 109.000
59.24000 116.000
59.28500 112.000
59.33000 95.000
59.37500 116.000
59.42000 108.000
59.46500 123.000
59.51000 129.000
59.55500 134.000
59.60000 116.000
59.64500 128.000
59.69000 122.000
59.73500 122.000
59.78000 108.000
59.82500 121.000
59.87000 109.000
59.91500 108.000
59.96000 119.000
60.00500 110.000
60.05000 127.000
60.09500 116.000
60.14000 105.000
60.18500 102.000
60.23000 107.000
60.27500 110.000
60.32000 103.000
60.36500 118.000
60.41000 111.000
60.45500 114.000
60.50000 115.000
60.54500 111.000
60.59000 111.000
60.63500 101.000
60.68000 121.000
60.72500 109.000
60.77000 114.000
60.81500 121.000
60.86000 128.000
60.90500 102.000
60.95000 121.000
60.99500 116.000
61.04000 111.000
61.08500 126.000
61.13000 110.000
61.17500 119.000
61.22000 106.000
61.26500 126.000
61.31000 124.000
61.35500 106.000
61.40000 118.000
61.44500 113.000
61.49000 111.000
61.53500 113.000
61.58000 115.000
61.62500 108.000
61.67000 108.000
61.71500 95.000
61.76000 99.000
61.80500 112.000
61.85000 113.000
61.89500 116.000
61.94000 122.000
61.98500 117.000