File: ISoD/xrd_data/HSC077_nPC.xy
2.00000 2.000
2.04500 2.000
2.09000 3.000
2.13500 3.000
2.18000 2.000
2.22500 2.000
2.27000 3.000
2.31500 1.000
2.36000 3.000
2.40500 1.000
2.45000 3.000
2.49500 4.000
2.54000 3.000
2.58500 2.000
2.63000 0.000
2.67500 2.000
2.72000 1.000
2.76500 1.000
2.81000 3.000
2.85500 3.000
2.90000 4.000
2.94500 2.000
2.99000 1.000
3.03500 1.000
3.08000 2.000
3.12500 2.000
3.17000 4.000
3.21500 20.000
3.26000 128.000
3.30500 259.000
3.35000 377.000
3.39500 372.000
3.44000 371.000
3.48500 353.000
3.53000 334.000
3.57500 319.000
3.62000 315.000
3.66500 343.000
3.71000 318.000
3.75500 327.000
3.80000 298.000
3.84500 300.000
3.89000 302.000
3.93500 315.000
3.98000 305.000
4.02500 304.000
4.07000 283.000
4.11500 292.000
4.16000 273.000
4.20500 282.000
4.25000 279.000
4.29500 257.000
4.34000 251.000
4.38500 270.000
4.43000 268.000
4.47500 278.000
4.52000 231.000
4.56500 255.000
4.61000 262.000
4.65500 259.000
4.70000 267.000
4.74500 253.000
4.79000 239.000
4.83500 244.000
4.88000 269.000
4.92500 256.000
4.97000 238.000
5.01500 245.000
5.06000 251.000
5.10500 261.000
5.15000 261.000
5.19500 254.000
5.24000 242.000
5.28500 243.000
5.33000 252.000
5.37500 232.000
5.42000 288.000
5.46500 225.000
5.51000 266.000
5.55500 251.000
5.60000 247.000
5.64500 253.000
5.69000 268.000
5.73500 266.000
5.78000 271.000
5.82500 281.000
5.87000 286.000
5.91500 304.000
5.96000 343.000
6.00500 346.000
6.05000 366.000
6.09500 426.000
6.14000 473.000
6.18500 528.000
6.23000 653.000
6.27500 417.000
6.32000 355.000
6.36500 282.000
6.41000 291.000
6.45500 272.000
6.50000 281.000
6.54500 276.000
6.59000 274.000
6.63500 252.000
6.68000 271.000
6.72500 259.000
6.77000 228.000
6.81500 213.000
6.86000 239.000
6.90500 253.000
6.95000 244.000
6.99500 251.000
7.04000 244.000
7.08500 231.000
7.13000 246.000
7.17500 235.000
7.22000 244.000
7.26500 232.000
7.31000 255.000
7.35500 252.000
7.40000 263.000
7.44500 255.000
7.49000 242.000
7.53500 251.000
7.58000 262.000
7.62500 263.000
7.67000 243.000
7.71500 235.000
7.76000 236.000
7.80500 241.000
7.85000 249.000
7.89500 257.000
7.94000 248.000
7.98500 254.000
8.03000 265.000
8.07500 249.000
8.12000 244.000
8.16500 256.000
8.21000 268.000
8.25500 252.000
8.30000 286.000
8.34500 257.000
8.39000 268.000
8.43500 283.000
8.48000 261.000
8.52500 293.000
8.57000 281.000
8.61500 302.000
8.66000 296.000
8.70500 293.000
8.75000 323.000
8.79500 301.000
8.84000 302.000
8.88500 309.000
8.93000 313.000
8.97500 261.000
9.02000 274.000
9.06500 263.000
9.11000 296.000
9.15500 262.000
9.20000 264.000
9.24500 240.000
9.29000 250.000
9.33500 265.000
9.38000 280.000
9.42500 257.000
9.47000 275.000
9.51500 270.000
9.56000 288.000
9.60500 240.000
9.65000 244.000
9.69500 258.000
9.74000 293.000
9.78500 271.000
9.83000 283.000
9.87500 304.000
9.92000 331.000
9.96500 309.000
10.01000 331.000
10.05500 345.000
10.10000 361.000
10.14500 378.000
10.19000 439.000
10.23500 452.000
10.28000 499.000
10.32500 579.000
10.37000 670.000
10.41500 853.000
10.46000 848.000
10.50500 533.000
10.55000 537.000
10.59500 705.000
10.64000 634.000
10.68500 509.000
10.73000 468.000
10.77500 499.000
10.82000 577.000
10.86500 632.000
10.91000 770.000
10.95500 1006.000
11.00000 1140.000
11.04500 898.000
11.09000 641.000
11.13500 475.000
11.18000 409.000
11.22500 344.000
11.27000 344.000
11.31500 329.000
11.36000 293.000
11.40500 285.000
11.45000 281.000
11.49500 277.000
11.54000 272.000
11.58500 291.000
11.63000 274.000
11.67500 293.000
11.72000 263.000
11.76500 260.000
11.81000 268.000
11.85500 266.000
11.90000 268.000
11.94500 268.000
11.99000 256.000
12.03500 269.000
12.08000 266.000
12.12500 268.000
12.17000 245.000
12.21500 274.000
12.26000 282.000
12.30500 276.000
12.35000 269.000
12.39500 282.000
12.44000 328.000
12.48500 342.000
12.53000 346.000
12.57500 390.000
12.62000 269.000
12.66500 273.000
12.71000 246.000
12.75500 240.000
12.80000 238.000
12.84500 245.000
12.89000 261.000
12.93500 252.000
12.98000 274.000
13.02500 264.000
13.07000 259.000
13.11500 248.000
13.16000 274.000
13.20500 269.000
13.25000 245.000
13.29500 276.000
13.34000 267.000
13.38500 253.000
13.43000 241.000
13.47500 262.000
13.52000 269.000
13.56500 255.000
13.61000 279.000
13.65500 251.000
13.70000 255.000
13.74500 245.000
13.79000 258.000
13.83500 276.000
13.88000 256.000
13.92500 260.000
13.97000 246.000
14.01500 240.000
14.06000 243.000
14.10500 233.000
14.15000 282.000
14.19500 267.000
14.24000 269.000
14.28500 261.000
14.33000 269.000
14.37500 271.000
14.42000 255.000
14.46500 235.000
14.51000 269.000
14.55500 257.000
14.60000 252.000
14.64500 266.000
14.69000 268.000
14.73500 246.000
14.78000 287.000
14.82500 266.000
14.87000 267.000
14.91500 269.000
14.96000 274.000
15.00500 296.000
15.05000 347.000
15.09500 254.000
15.14000 229.000
15.18500 242.000
15.23000 264.000
15.27500 263.000
15.32000 267.000
15.36500 265.000
15.41000 236.000
15.45500 251.000
15.50000 259.000
15.54500 274.000
15.59000 284.000
15.63500 243.000
15.68000 276.000
15.72500 246.000
15.77000 266.000
15.81500 276.000
15.86000 263.000
15.90500 257.000
15.95000 249.000
15.99500 272.000
16.04000 267.000
16.08500 275.000
16.13000 279.000
16.17500 254.000
16.22000 260.000
16.26500 268.000
16.31000 260.000
16.35500 266.000
16.40000 264.000
16.44500 250.000
16.49000 278.000
16.53500 247.000
16.58000 286.000
16.62500 261.000
16.67000 268.000
16.71500 255.000
16.76000 284.000
16.80500 276.000
16.85000 281.000
16.89500 277.000
16.94000 270.000
16.98500 280.000
17.03000 300.000
17.07500 287.000
17.12000 309.000
17.16500 298.000
17.21000 328.000
17.25500 321.000
17.30000 339.000
17.34500 358.000
17.39000 364.000
17.43500 368.000
17.48000 379.000
17.52500 387.000
17.57000 398.000
17.61500 357.000
17.66000 349.000
17.70500 331.000
17.75000 364.000
17.79500 310.000
17.84000 346.000
17.88500 328.000
17.93000 355.000
17.97500 343.000
18.02000 287.000
18.06500 288.000
18.11000 275.000
18.15500 294.000
18.20000 292.000
18.24500 268.000
18.29000 282.000
18.33500 283.000
18.38000 273.000
18.42500 288.000
18.47000 327.000
18.51500 284.000
18.56000 306.000
18.60500 337.000
18.65000 384.000
18.69500 440.000
18.74000 530.000
18.78500 453.000
18.83000 411.000
18.87500 381.000
18.92000 379.000
18.96500 395.000
19.01000 383.000
19.05500 399.000
19.10000 408.000
19.14500 457.000
19.19000 454.000
19.23500 543.000
19.28000 518.000
19.32500 354.000
19.37000 322.000
19.41500 307.000
19.46000 306.000
19.50500 304.000
19.55000 308.000
19.59500 290.000
19.64000 283.000
19.68500 253.000
19.73000 266.000
19.77500 284.000
19.82000 294.000
19.86500 253.000
19.91000 301.000
19.95500 284.000
20.00000 259.000
20.04500 271.000
20.09000 257.000
20.13500 250.000
20.18000 280.000
20.22500 313.000
20.27000 285.000
20.31500 266.000
20.36000 289.000
20.40500 255.000
20.45000 293.000
20.49500 294.000
20.54000 279.000
20.58500 257.000
20.63000 300.000
20.67500 286.000
20.72000 289.000
20.76500 290.000
20.81000 285.000
20.85500 314.000
20.90000 330.000
20.94500 308.000
20.99000 349.000
21.03500 350.000
21.08000 354.000
21.12500 349.000
21.17000 312.000
21.21500 332.000
21.26000 326.000
21.30500 314.000
21.35000 321.000
21.39500 311.000
21.44000 276.000
21.48500 301.000
21.53000 255.000
21.57500 277.000
21.62000 284.000
21.66500 286.000
21.71000 266.000
21.75500 273.000
21.80000 275.000
21.84500 306.000
21.89000 274.000
21.93500 276.000
21.98000 276.000
22.02500 277.000
22.07000 285.000
22.11500 294.000
22.16000 296.000
22.20500 277.000
22.25000 268.000
22.29500 275.000
22.34000 268.000
22.38500 291.000
22.43000 287.000
22.47500 294.000
22.52000 275.000
22.56500 303.000
22.61000 281.000
22.65500 288.000
22.70000 306.000
22.74500 319.000
22.79000 299.000
22.83500 307.000
22.88000 276.000
22.92500 276.000
22.97000 289.000
23.01500 274.000
23.06000 267.000
23.10500 278.000
23.15000 293.000
23.19500 301.000
23.24000 283.000
23.28500 263.000
23.33000 287.000
23.37500 280.000
23.42000 305.000
23.46500 285.000
23.51000 285.000
23.55500 280.000
23.60000 319.000
23.64500 292.000
23.69000 287.000
23.73500 289.000
23.78000 285.000
23.82500 285.000
23.87000 280.000
23.91500 305.000
23.96000 310.000
24.00500 302.000
24.05000 318.000
24.09500 311.000
24.14000 284.000
24.18500 297.000
24.23000 293.000
24.27500 339.000
24.32000 318.000
24.36500 356.000
24.41000 363.000
24.45500 421.000
24.50000 459.000
24.54500 478.000
24.59000 368.000
24.63500 318.000
24.68000 364.000
24.72500 324.000
24.77000 339.000
24.81500 335.000
24.86000 360.000
24.90500 357.000
24.95000 385.000
24.99500 395.000
25.04000 463.000
25.08500 478.000
25.13000 444.000
25.17500 446.000
25.22000 460.000
25.26500 464.000
25.31000 485.000
25.35500 543.000
25.40000 558.000
25.44500 572.000
25.49000 675.000
25.53500 751.000
25.58000 741.000
25.62500 610.000
25.67000 624.000
25.71500 540.000
25.76000 602.000
25.80500 579.000
25.85000 551.000
25.89500 494.000
25.94000 445.000
25.98500 448.000
26.03000 441.000
26.07500 480.000
26.12000 478.000
26.16500 423.000
26.21000 407.000
26.25500 409.000
26.30000 408.000
26.34500 420.000
26.39000 412.000
26.43500 479.000
26.48000 520.000
26.52500 607.000
26.57000 688.000
26.61500 750.000
26.66000 577.000
26.70500 450.000
26.75000 405.000
26.79500 400.000
26.84000 367.000
26.88500 370.000
26.93000 336.000
26.97500 347.000
27.02000 374.000
27.06500 356.000
27.11000 357.000
27.15500 361.000
27.20000 397.000
27.24500 385.000
27.29000 414.000
27.33500 372.000
27.38000 406.000
27.42500 440.000
27.47000 472.000
27.51500 596.000
27.56000 759.000
27.60500 833.000
27.65000 727.000
27.69500 732.000
27.74000 758.000
27.78500 755.000
27.83000 811.000
27.87500 892.000
27.92000 1006.000
27.96500 1101.000
28.01000 1343.000
28.05500 1666.000
28.10000 1985.000
28.14500 1759.000
28.19000 1295.000
28.23500 962.000
28.28000 768.000
28.32500 620.000
28.37000 564.000
28.41500 548.000
28.46000 447.000
28.50500 416.000
28.55000 415.000
28.59500 432.000
28.64000 400.000
28.68500 367.000
28.73000 354.000
28.77500 349.000
28.82000 322.000
28.86500 292.000
28.91000 316.000
28.95500 323.000
29.00000 335.000
29.04500 281.000
29.09000 307.000
29.13500 298.000
29.18000 328.000
29.22500 287.000
29.27000 294.000
29.31500 304.000
29.36000 302.000
29.40500 330.000
29.45000 297.000
29.49500 318.000
29.54000 330.000
29.58500 327.000
29.63000 323.000
29.67500 351.000
29.72000 299.000
29.76500 297.000
29.81000 303.000
29.85500 326.000
29.90000 338.000
29.94500 297.000
29.99000 325.000
30.03500 273.000
30.08000 313.000
30.12500 298.000
30.17000 321.000
30.21500 337.000
30.26000 325.000
30.30500 335.000
30.35000 344.000
30.39500 413.000
30.44000 546.000
30.48500 474.000
30.53000 364.000
30.57500 287.000
30.62000 286.000
30.66500 268.000
30.71000 261.000
30.75500 248.000
30.80000 249.000
30.84500 263.000
30.89000 266.000
30.93500 248.000
30.98000 258.000
31.02500 268.000
31.07000 258.000
31.11500 250.000
31.16000 221.000
31.20500 247.000
31.25000 222.000
31.29500 245.000
31.34000 252.000
31.38500 242.000
31.43000 252.000
31.47500 250.000
31.52000 254.000
31.56500 241.000
31.61000 282.000
31.65500 295.000
31.70000 254.000
31.74500 232.000
31.79000 227.000
31.83500 242.000
31.88000 237.000
31.92500 245.000
31.97000 231.000
32.01500 269.000
32.06000 268.000
32.10500 219.000
32.15000 212.000
32.19500 234.000
32.24000 230.000
32.28500 220.000
32.33000 218.000
32.37500 228.000
32.42000 233.000
32.46500 232.000
32.51000 240.000
32.55500 241.000
32.60000 238.000
32.64500 229.000
32.69000 232.000
32.73500 229.000
32.78000 233.000
32.82500 207.000
32.87000 207.000
32.91500 225.000
32.96000 257.000
33.00500 202.000
33.05000 231.000
33.09500 224.000
33.14000 228.000
33.18500 236.000
33.23000 224.000
33.27500 225.000
33.32000 213.000
33.36500 230.000
33.41000 224.000
33.45500 239.000
33.50000 232.000
33.54500 227.000
33.59000 243.000
33.63500 230.000
33.68000 235.000
33.72500 313.000
33.77000 266.000
33.81500 264.000
33.86000 236.000
33.90500 282.000
33.95000 273.000
33.99500 282.000
34.04000 251.000
34.08500 246.000
34.13000 225.000
34.17500 217.000
34.22000 227.000
34.26500 236.000
34.31000 214.000
34.35500 231.000
34.40000 216.000
34.44500 220.000
34.49000 218.000
34.53500 205.000
34.58000 201.000
34.62500 214.000
34.67000 187.000
34.71500 201.000
34.76000 186.000
34.80500 212.000
34.85000 191.000
34.89500 180.000
34.94000 196.000
34.98500 189.000
35.03000 205.000
35.07500 211.000
35.12000 173.000
35.16500 190.000
35.21000 169.000
35.25500 189.000
35.30000 215.000
35.34500 199.000
35.39000 218.000
35.43500 189.000
35.48000 180.000
35.52500 188.000
35.57000 185.000
35.61500 193.000
35.66000 194.000
35.70500 194.000
35.75000 219.000
35.79500 292.000
35.84000 262.000
35.88500 205.000
35.93000 168.000
35.97500 200.000
36.02000 189.000
36.06500 192.000
36.11000 178.000
36.15500 188.000
36.20000 184.000
36.24500 161.000
36.29000 169.000
36.33500 205.000
36.38000 168.000
36.42500 166.000
36.47000 196.000
36.51500 179.000
36.56000 169.000
36.60500 165.000
36.65000 175.000
36.69500 169.000
36.74000 176.000
36.78500 158.000
36.83000 170.000
36.87500 163.000
36.92000 157.000
36.96500 185.000
37.01000 177.000
37.05500 171.000
37.10000 177.000
37.14500 178.000
37.19000 205.000
37.23500 158.000
37.28000 163.000
37.32500 193.000
37.37000 183.000
37.41500 186.000
37.46000 161.000
37.50500 193.000
37.55000 179.000
37.59500 190.000
37.64000 173.000
37.68500 163.000
37.73000 176.000
37.77500 174.000
37.82000 170.000
37.86500 156.000
37.91000 180.000
37.95500 168.000
38.00000 168.000
38.04500 155.000
38.09000 162.000
38.13500 170.000
38.18000 164.000
38.22500 154.000
38.27000 163.000
38.31500 160.000
38.36000 159.000
38.40500 166.000
38.45000 158.000
38.49500 165.000
38.54000 170.000
38.58500 179.000
38.63000 175.000
38.67500 173.000
38.72000 189.000
38.76500 192.000
38.81000 244.000
38.85500 220.000
38.90000 208.000
38.94500 184.000
38.99000 195.000
39.03500 182.000
39.08000 173.000
39.12500 184.000
39.17000 184.000
39.21500 171.000
39.26000 187.000
39.30500 180.000
39.35000 211.000
39.39500 221.000
39.44000 205.000
39.48500 221.000
39.53000 201.000
39.57500 167.000
39.62000 159.000
39.66500 159.000
39.71000 156.000
39.75500 159.000
39.80000 150.000
39.84500 161.000
39.89000 175.000
39.93500 154.000
39.98000 142.000
40.02500 162.000
40.07000 140.000
40.11500 146.000
40.16000 135.000
40.20500 144.000
40.25000 139.000
40.29500 129.000
40.34000 127.000
40.38500 142.000
40.43000 155.000
40.47500 159.000
40.52000 155.000
40.56500 151.000
40.61000 158.000
40.65500 155.000
40.70000 151.000
40.74500 150.000
40.79000 197.000
40.83500 181.000
40.88000 152.000
40.92500 136.000
40.97000 137.000
41.01500 144.000
41.06000 140.000
41.10500 116.000
41.15000 160.000
41.19500 132.000
41.24000 133.000
41.28500 141.000
41.33000 139.000
41.37500 143.000
41.42000 150.000
41.46500 156.000
41.51000 135.000
41.55500 153.000
41.60000 135.000
41.64500 147.000
41.69000 151.000
41.73500 150.000
41.78000 149.000
41.82500 142.000
41.87000 148.000
41.91500 131.000
41.96000 153.000
42.00500 140.000
42.05000 163.000
42.09500 163.000
42.14000 173.000
42.18500 156.000
42.23000 161.000
42.27500 179.000
42.32000 168.000
42.36500 153.000
42.41000 158.000
42.45500 172.000
42.50000 145.000
42.54500 167.000
42.59000 186.000
42.63500 163.000
42.68000 167.000
42.72500 165.000
42.77000 138.000
42.81500 130.000
42.86000 160.000
42.90500 155.000
42.95000 169.000
42.99500 172.000
43.04000 135.000
43.08500 160.000
43.13000 166.000
43.17500 158.000
43.22000 166.000
43.26500 158.000
43.31000 168.000
43.35500 167.000
43.40000 157.000
43.44500 144.000
43.49000 144.000
43.53500 150.000
43.58000 126.000
43.62500 130.000
43.67000 150.000
43.71500 139.000
43.76000 145.000
43.80500 134.000
43.85000 128.000
43.89500 131.000
43.94000 134.000
43.98500 154.000
44.03000 140.000
44.07500 125.000
44.12000 150.000
44.16500 147.000
44.21000 141.000
44.25500 149.000
44.30000 131.000
44.34500 159.000
44.39000 154.000
44.43500 163.000
44.48000 146.000
44.52500 137.000
44.57000 122.000
44.61500 154.000
44.66000 157.000
44.70500 149.000
44.75000 145.000
44.79500 132.000
44.84000 171.000
44.88500 158.000
44.93000 170.000
44.97500 148.000
45.02000 164.000
45.06500 138.000
45.11000 153.000
45.15500 170.000
45.20000 166.000
45.24500 171.000
45.29000 157.000
45.33500 135.000
45.38000 140.000
45.42500 161.000
45.47000 158.000
45.51500 160.000
45.56000 156.000
45.60500 136.000
45.65000 144.000
45.69500 131.000
45.74000 142.000
45.78500 143.000
45.83000 133.000
45.87500 146.000
45.92000 126.000
45.96500 133.000
46.01000 131.000
46.05500 155.000
46.10000 121.000
46.14500 129.000
46.19000 140.000
46.23500 153.000
46.28000 142.000
46.32500 140.000
46.37000 118.000
46.41500 138.000
46.46000 130.000
46.50500 128.000
46.55000 132.000
46.59500 124.000
46.64000 124.000
46.68500 121.000
46.73000 135.000
46.77500 126.000
46.82000 128.000
46.86500 117.000
46.91000 125.000
46.95500 133.000
47.00000 150.000
47.04500 135.000
47.09000 139.000
47.13500 117.000
47.18000 138.000
47.22500 124.000
47.27000 123.000
47.31500 134.000
47.36000 126.000
47.40500 124.000
47.45000 116.000
47.49500 122.000
47.54000 154.000
47.58500 150.000
47.63000 134.000
47.67500 138.000
47.72000 131.000
47.76500 138.000
47.81000 133.000
47.85500 141.000
47.90000 137.000
47.94500 150.000
47.99000 119.000
48.03500 119.000
48.08000 123.000
48.12500 125.000
48.17000 120.000
48.21500 124.000
48.26000 136.000
48.30500 131.000
48.35000 135.000
48.39500 138.000
48.44000 138.000
48.48500 148.000
48.53000 140.000
48.57500 126.000
48.62000 136.000
48.66500 125.000
48.71000 132.000
48.75500 118.000
48.80000 130.000
48.84500 113.000
48.89000 138.000
48.93500 127.000
48.98000 127.000
49.02500 121.000
49.07000 150.000
49.11500 148.000
49.16000 133.000
49.20500 144.000
49.25000 131.000
49.29500 139.000
49.34000 134.000
49.38500 140.000
49.43000 136.000
49.47500 125.000
49.52000 119.000
49.56500 116.000
49.61000 109.000
49.65500 105.000
49.70000 124.000
49.74500 113.000
49.79000 103.000
49.83500 125.000
49.88000 118.000
49.92500 117.000
49.97000 123.000
50.01500 122.000
50.06000 128.000
50.10500 129.000
50.15000 130.000
50.19500 124.000
50.24000 121.000
50.28500 115.000
50.33000 123.000
50.37500 108.000
50.42000 113.000
50.46500 119.000
50.51000 128.000
50.55500 115.000
50.60000 128.000
50.64500 124.000
50.69000 120.000
50.73500 131.000
50.78000 118.000
50.82500 112.000
50.87000 128.000
50.91500 123.000
50.96000 132.000
51.00500 115.000
51.05000 109.000
51.09500 116.000
51.14000 118.000
51.18500 109.000
51.23000 102.000
51.27500 120.000
51.32000 128.000
51.36500 117.000
51.41000 123.000
51.45500 103.000
51.50000 113.000
51.54500 122.000
51.59000 135.000
51.63500 123.000
51.68000 130.000
51.72500 130.000
51.77000 119.000
51.81500 113.000
51.86000 131.000
51.90500 113.000
51.95000 119.000
51.99500 133.000
52.04000 151.000
52.08500 124.000
52.13000 114.000
52.17500 126.000
52.22000 125.000
52.26500 144.000
52.31000 146.000
52.35500 156.000
52.40000 156.000
52.44500 140.000
52.49000 147.000
52.53500 121.000
52.58000 123.000
52.62500 112.000
52.67000 143.000
52.71500 119.000
52.76000 124.000
52.80500 148.000
52.85000 112.000
52.89500 128.000
52.94000 132.000
52.98500 132.000
53.03000 126.000
53.07500 117.000
53.12000 121.000
53.16500 124.000
53.21000 130.000
53.25500 125.000
53.30000 110.000
53.34500 128.000
53.39000 135.000
53.43500 121.000
53.48000 119.000
53.52500 146.000
53.57000 112.000
53.61500 140.000
53.66000 129.000
53.70500 113.000
53.75000 123.000
53.79500 116.000
53.84000 139.000
53.88500 127.000
53.93000 140.000
53.97500 183.000
54.02000 172.000
54.06500 168.000
54.11000 150.000
54.15500 156.000
54.20000 128.000
54.24500 138.000
54.29000 134.000
54.33500 120.000
54.38000 133.000
54.42500 117.000
54.47000 120.000
54.51500 116.000
54.56000 122.000
54.60500 132.000
54.65000 122.000
54.69500 123.000
54.74000 119.000
54.78500 128.000
54.83000 125.000
54.87500 127.000
54.92000 115.000
54.96500 115.000
55.01000 136.000
55.05500 125.000
55.10000 120.000
55.14500 107.000
55.19000 127.000
55.23500 125.000
55.28000 118.000
55.32500 103.000
55.37000 127.000
55.41500 120.000
55.46000 108.000
55.50500 111.000
55.55000 116.000
55.59500 112.000
55.64000 110.000
55.68500 139.000
55.73000 124.000
55.77500 136.000
55.82000 117.000
55.86500 107.000
55.91000 119.000
55.95500 116.000
56.00000 122.000
56.04500 107.000
56.09000 119.000
56.13500 124.000
56.18000 116.000
56.22500 124.000
56.27000 122.000
56.31500 110.000
56.36000 107.000
56.40500 113.000
56.45000 120.000
56.49500 110.000
56.54000 115.000
56.58500 113.000
56.63000 121.000
56.67500 105.000
56.72000 112.000
56.76500 114.000
56.81000 125.000
56.85500 111.000
56.90000 133.000
56.94500 133.000
56.99000 100.000
57.03500 107.000
57.08000 116.000
57.12500 111.000
57.17000 115.000
57.21500 104.000
57.26000 116.000
57.30500 111.000
57.35000 114.000
57.39500 113.000
57.44000 131.000
57.48500 115.000
57.53000 114.000
57.57500 115.000
57.62000 138.000
57.66500 108.000
57.71000 105.000
57.75500 114.000
57.80000 111.000
57.84500 140.000
57.89000 132.000
57.93500 134.000
57.98000 127.000
58.02500 142.000
58.07000 133.000
58.11500 135.000
58.16000 124.000
58.20500 135.000
58.25000 135.000
58.29500 127.000
58.34000 126.000
58.38500 134.000
58.43000 115.000
58.47500 137.000
58.52000 119.000
58.56500 125.000
58.61000 144.000
58.65500 127.000
58.70000 115.000
58.74500 95.000
58.79000 99.000
58.83500 103.000
58.88000 101.000
58.92500 102.000
58.97000 98.000
59.01500 104.000
59.06000 117.000
59.10500 117.000
59.15000 109.000
59.19500 111.000
59.24000 97.000
59.28500 98.000
59.33000 105.000
59.37500 103.000
59.42000 106.000
59.46500 102.000
59.51000 106.000
59.55500 107.000
59.60000 110.000
59.64500 92.000
59.69000 112.000
59.73500 86.000
59.78000 106.000
59.82500 120.000
59.87000 108.000
59.91500 106.000
59.96000 98.000
60.00500 83.000
60.05000 103.000
60.09500 93.000
60.14000 109.000
60.18500 113.000
60.23000 114.000
60.27500 99.000
60.32000 118.000
60.36500 92.000
60.41000 99.000
60.45500 100.000
60.50000 122.000
60.54500 105.000
60.59000 120.000
60.63500 100.000
60.68000 107.000
60.72500 104.000
60.77000 116.000
60.81500 93.000
60.86000 104.000
60.90500 104.000
60.95000 92.000
60.99500 93.000
61.04000 100.000
61.08500 90.000
61.13000 101.000
61.17500 87.000
61.22000 87.000
61.26500 102.000
61.31000 95.000
61.35500 84.000
61.40000 104.000
61.44500 105.000
61.49000 105.000
61.53500 107.000
61.58000 111.000
61.62500 92.000
61.67000 94.000
61.71500 90.000
61.76000 88.000
61.80500 88.000
61.85000 95.000
61.89500 107.000
61.94000 91.000
61.98500 111.000