File: ISoD/xrd_data/HSC095.xy
2.00000 2.000
2.04500 2.000
2.09000 0.000
2.13500 2.000
2.18000 4.000
2.22500 1.000
2.27000 2.000
2.31500 3.000
2.36000 1.000
2.40500 1.000
2.45000 1.000
2.49500 3.000
2.54000 2.000
2.58500 1.000
2.63000 3.000
2.67500 2.000
2.72000 2.000
2.76500 2.000
2.81000 0.000
2.85500 0.000
2.90000 2.000
2.94500 2.000
2.99000 3.000
3.03500 9.000
3.08000 17.000
3.12500 52.000
3.17000 94.000
3.21500 87.000
3.26000 94.000
3.30500 107.000
3.35000 98.000
3.39500 94.000
3.44000 94.000
3.48500 102.000
3.53000 101.000
3.57500 98.000
3.62000 112.000
3.66500 111.000
3.71000 98.000
3.75500 101.000
3.80000 105.000
3.84500 100.000
3.89000 103.000
3.93500 127.000
3.98000 104.000
4.02500 110.000
4.07000 95.000
4.11500 104.000
4.16000 126.000
4.20500 115.000
4.25000 122.000
4.29500 118.000
4.34000 115.000
4.38500 121.000
4.43000 104.000
4.47500 117.000
4.52000 130.000
4.56500 115.000
4.61000 116.000
4.65500 108.000
4.70000 125.000
4.74500 120.000
4.79000 116.000
4.83500 112.000
4.88000 102.000
4.92500 129.000
4.97000 113.000
5.01500 117.000
5.06000 131.000
5.10500 117.000
5.15000 126.000
5.19500 140.000
5.24000 143.000
5.28500 127.000
5.33000 131.000
5.37500 135.000
5.42000 143.000
5.46500 145.000
5.51000 157.000
5.55500 132.000
5.60000 142.000
5.64500 147.000
5.69000 168.000
5.73500 143.000
5.78000 161.000
5.82500 159.000
5.87000 161.000
5.91500 175.000
5.96000 209.000
6.00500 225.000
6.05000 227.000
6.09500 258.000
6.14000 298.000
6.18500 414.000
6.23000 671.000
6.27500 204.000
6.32000 168.000
6.36500 156.000
6.41000 163.000
6.45500 154.000
6.50000 158.000
6.54500 144.000
6.59000 133.000
6.63500 143.000
6.68000 157.000
6.72500 148.000
6.77000 166.000
6.81500 145.000
6.86000 152.000
6.90500 163.000
6.95000 160.000
6.99500 162.000
7.04000 155.000
7.08500 177.000
7.13000 162.000
7.17500 159.000
7.22000 166.000
7.26500 160.000
7.31000 161.000
7.35500 155.000
7.40000 165.000
7.44500 160.000
7.49000 154.000
7.53500 147.000
7.58000 163.000
7.62500 167.000
7.67000 187.000
7.71500 173.000
7.76000 173.000
7.80500 163.000
7.85000 163.000
7.89500 172.000
7.94000 165.000
7.98500 159.000
8.03000 149.000
8.07500 172.000
8.12000 180.000
8.16500 154.000
8.21000 158.000
8.25500 165.000
8.30000 161.000
8.34500 177.000
8.39000 176.000
8.43500 174.000
8.48000 174.000
8.52500 160.000
8.57000 184.000
8.61500 150.000
8.66000 149.000
8.70500 188.000
8.75000 165.000
8.79500 175.000
8.84000 200.000
8.88500 194.000
8.93000 227.000
8.97500 185.000
9.02000 178.000
9.06500 178.000
9.11000 195.000
9.15500 165.000
9.20000 159.000
9.24500 166.000
9.29000 164.000
9.33500 173.000
9.38000 169.000
9.42500 160.000
9.47000 179.000
9.51500 162.000
9.56000 190.000
9.60500 152.000
9.65000 182.000
9.69500 154.000
9.74000 170.000
9.78500 160.000
9.83000 174.000
9.87500 172.000
9.92000 181.000
9.96500 173.000
10.01000 165.000
10.05500 190.000
10.10000 186.000
10.14500 212.000
10.19000 219.000
10.23500 237.000
10.28000 311.000
10.32500 374.000
10.37000 536.000
10.41500 946.000
10.46000 1340.000
10.50500 281.000
10.55000 206.000
10.59500 160.000
10.64000 183.000
10.68500 184.000
10.73000 175.000
10.77500 182.000
10.82000 170.000
10.86500 177.000
10.91000 164.000
10.95500 186.000
11.00000 176.000
11.04500 177.000
11.09000 183.000
11.13500 157.000
11.18000 163.000
11.22500 183.000
11.27000 160.000
11.31500 169.000
11.36000 168.000
11.40500 176.000
11.45000 168.000
11.49500 189.000
11.54000 178.000
11.58500 197.000
11.63000 216.000
11.67500 194.000
11.72000 185.000
11.76500 215.000
11.81000 212.000
11.85500 209.000
11.90000 252.000
11.94500 283.000
11.99000 360.000
12.03500 485.000
12.08000 718.000
12.12500 1197.000
12.17000 1873.000
12.21500 1971.000
12.26000 1303.000
12.30500 392.000
12.35000 238.000
12.39500 256.000
12.44000 278.000
12.48500 315.000
12.53000 411.000
12.57500 555.000
12.62000 207.000
12.66500 194.000
12.71000 188.000
12.75500 184.000
12.80000 200.000
12.84500 170.000
12.89000 201.000
12.93500 194.000
12.98000 170.000
13.02500 177.000
13.07000 199.000
13.11500 203.000
13.16000 199.000
13.20500 221.000
13.25000 271.000
13.29500 341.000
13.34000 443.000
13.38500 645.000
13.43000 618.000
13.47500 269.000
13.52000 176.000
13.56500 201.000
13.61000 200.000
13.65500 190.000
13.70000 192.000
13.74500 179.000
13.79000 173.000
13.83500 161.000
13.88000 169.000
13.92500 166.000
13.97000 165.000
14.01500 172.000
14.06000 173.000
14.10500 191.000
14.15000 195.000
14.19500 183.000
14.24000 195.000
14.28500 170.000
14.33000 163.000
14.37500 166.000
14.42000 181.000
14.46500 182.000
14.51000 182.000
14.55500 173.000
14.60000 180.000
14.64500 176.000
14.69000 180.000
14.73500 191.000
14.78000 168.000
14.82500 194.000
14.87000 196.000
14.91500 182.000
14.96000 225.000
15.00500 245.000
15.05000 347.000
15.09500 227.000
15.14000 190.000
15.18500 186.000
15.23000 187.000
15.27500 206.000
15.32000 183.000
15.36500 169.000
15.41000 196.000
15.45500 166.000
15.50000 177.000
15.54500 201.000
15.59000 188.000
15.63500 169.000
15.68000 191.000
15.72500 149.000
15.77000 163.000
15.81500 184.000
15.86000 174.000
15.90500 185.000
15.95000 170.000
15.99500 192.000
16.04000 186.000
16.08500 178.000
16.13000 148.000
16.17500 171.000
16.22000 186.000
16.26500 184.000
16.31000 220.000
16.35500 229.000
16.40000 281.000
16.44500 278.000
16.49000 276.000
16.53500 254.000
16.58000 187.000
16.62500 195.000
16.67000 193.000
16.71500 198.000
16.76000 186.000
16.80500 253.000
16.85000 262.000
16.89500 266.000
16.94000 232.000
16.98500 205.000
17.03000 189.000
17.07500 180.000
17.12000 204.000
17.16500 181.000
17.21000 170.000
17.25500 193.000
17.30000 204.000
17.34500 198.000
17.39000 193.000
17.43500 198.000
17.48000 172.000
17.52500 202.000
17.57000 186.000
17.61500 200.000
17.66000 193.000
17.70500 192.000
17.75000 200.000
17.79500 213.000
17.84000 224.000
17.88500 267.000
17.93000 355.000
17.97500 309.000
18.02000 292.000
18.06500 364.000
18.11000 244.000
18.15500 209.000
18.20000 220.000
18.24500 199.000
18.29000 196.000
18.33500 187.000
18.38000 201.000
18.42500 199.000
18.47000 193.000
18.51500 206.000
18.56000 206.000
18.60500 218.000
18.65000 246.000
18.69500 340.000
18.74000 625.000
18.78500 441.000
18.83000 230.000
18.87500 197.000
18.92000 211.000
18.96500 200.000
19.01000 219.000
19.05500 215.000
19.10000 235.000
19.14500 306.000
19.19000 408.000
19.23500 808.000
19.28000 1082.000
19.32500 355.000
19.37000 363.000
19.41500 463.000
19.46000 442.000
19.50500 267.000
19.55000 284.000
19.59500 350.000
19.64000 522.000
19.68500 297.000
19.73000 218.000
19.77500 216.000
19.82000 209.000
19.86500 188.000
19.91000 223.000
19.95500 215.000
20.00000 214.000
20.04500 198.000
20.09000 193.000
20.13500 198.000
20.18000 212.000
20.22500 215.000
20.27000 213.000
20.31500 216.000
20.36000 202.000
20.40500 221.000
20.45000 208.000
20.49500 219.000
20.54000 227.000
20.58500 224.000
20.63000 231.000
20.67500 204.000
20.72000 226.000
20.76500 221.000
20.81000 204.000
20.85500 255.000
20.90000 255.000
20.94500 279.000
20.99000 326.000
21.03500 242.000
21.08000 236.000
21.12500 223.000
21.17000 235.000
21.21500 219.000
21.26000 208.000
21.30500 220.000
21.35000 221.000
21.39500 238.000
21.44000 269.000
21.48500 257.000
21.53000 305.000
21.57500 288.000
21.62000 289.000
21.66500 270.000
21.71000 263.000
21.75500 226.000
21.80000 188.000
21.84500 194.000
21.89000 225.000
21.93500 211.000
21.98000 212.000
22.02500 212.000
22.07000 242.000
22.11500 229.000
22.16000 275.000
22.20500 263.000
22.25000 215.000
22.29500 202.000
22.34000 222.000
22.38500 196.000
22.43000 204.000
22.47500 214.000
22.52000 219.000
22.56500 209.000
22.61000 198.000
22.65500 195.000
22.70000 210.000
22.74500 215.000
22.79000 196.000
22.83500 214.000
22.88000 207.000
22.92500 218.000
22.97000 204.000
23.01500 217.000
23.06000 209.000
23.10500 192.000
23.15000 209.000
23.19500 232.000
23.24000 217.000
23.28500 241.000
23.33000 195.000
23.37500 189.000
23.42000 215.000
23.46500 199.000
23.51000 241.000
23.55500 202.000
23.60000 232.000
23.64500 208.000
23.69000 223.000
23.73500 208.000
23.78000 240.000
23.82500 262.000
23.87000 258.000
23.91500 251.000
23.96000 261.000
24.00500 237.000
24.05000 226.000
24.09500 232.000
24.14000 232.000
24.18500 254.000
24.23000 278.000
24.27500 274.000
24.32000 345.000
24.36500 395.000
24.41000 377.000
24.45500 480.000
24.50000 785.000
24.54500 608.000
24.59000 319.000
24.63500 282.000
24.68000 278.000
24.72500 247.000
24.77000 222.000
24.81500 220.000
24.86000 218.000
24.90500 221.000
24.95000 250.000
24.99500 247.000
25.04000 304.000
25.08500 405.000
25.13000 346.000
25.17500 248.000
25.22000 231.000
25.26500 266.000
25.31000 282.000
25.35500 237.000
25.40000 245.000
25.44500 278.000
25.49000 358.000
25.53500 414.000
25.58000 344.000
25.62500 388.000
25.67000 495.000
25.71500 708.000
25.76000 1039.000
25.80500 1445.000
25.85000 1022.000
25.89500 572.000
25.94000 392.000
25.98500 363.000
26.03000 362.000
26.07500 474.000
26.12000 650.000
26.16500 456.000
26.21000 521.000
26.25500 832.000
26.30000 1141.000
26.34500 935.000
26.39000 643.000
26.43500 560.000
26.48000 734.000
26.52500 929.000
26.57000 1166.000
26.61500 1237.000
26.66000 536.000
26.70500 379.000
26.75000 341.000
26.79500 279.000
26.84000 282.000
26.88500 288.000
26.93000 317.000
26.97500 316.000
27.02000 346.000
27.06500 309.000
27.11000 325.000
27.15500 277.000
27.20000 281.000
27.24500 266.000
27.29000 274.000
27.33500 278.000
27.38000 286.000
27.42500 305.000
27.47000 407.000
27.51500 584.000
27.56000 999.000
27.60500 1299.000
27.65000 762.000
27.69500 748.000
27.74000 1114.000
27.78500 1654.000
27.83000 1710.000
27.87500 943.000
27.92000 514.000
27.96500 356.000
28.01000 298.000
28.05500 269.000
28.10000 242.000
28.14500 240.000
28.19000 242.000
28.23500 253.000
28.28000 297.000
28.32500 348.000
28.37000 430.000
28.41500 342.000
28.46000 280.000
28.50500 241.000
28.55000 232.000
28.59500 265.000
28.64000 282.000
28.68500 222.000
28.73000 234.000
28.77500 239.000
28.82000 226.000
28.86500 249.000
28.91000 247.000
28.95500 261.000
29.00000 260.000
29.04500 258.000
29.09000 277.000
29.13500 237.000
29.18000 241.000
29.22500 268.000
29.27000 262.000
29.31500 239.000
29.36000 271.000
29.40500 239.000
29.45000 233.000
29.49500 248.000
29.54000 314.000
29.58500 348.000
29.63000 312.000
29.67500 304.000
29.72000 236.000
29.76500 217.000
29.81000 277.000
29.85500 353.000
29.90000 314.000
29.94500 329.000
29.99000 374.000
30.03500 383.000
30.08000 354.000
30.12500 329.000
30.17000 275.000
30.21500 251.000
30.26000 246.000
30.30500 242.000
30.35000 397.000
30.39500 593.000
30.44000 978.000
30.48500 702.000
30.53000 418.000
30.57500 277.000
30.62000 243.000
30.66500 239.000
30.71000 265.000
30.75500 317.000
30.80000 380.000
30.84500 366.000
30.89000 284.000
30.93500 285.000
30.98000 286.000
31.02500 210.000
31.07000 197.000
31.11500 200.000
31.16000 167.000
31.20500 184.000
31.25000 166.000
31.29500 205.000
31.34000 171.000
31.38500 196.000
31.43000 193.000
31.47500 212.000
31.52000 260.000
31.56500 275.000
31.61000 424.000
31.65500 403.000
31.70000 308.000
31.74500 247.000
31.79000 191.000
31.83500 204.000
31.88000 167.000
31.92500 185.000
31.97000 221.000
32.01500 307.000
32.06000 303.000
32.10500 248.000
32.15000 199.000
32.19500 172.000
32.24000 192.000
32.28500 196.000
32.33000 197.000
32.37500 200.000
32.42000 188.000
32.46500 190.000
32.51000 198.000
32.55500 159.000
32.60000 197.000
32.64500 219.000
32.69000 247.000
32.73500 178.000
32.78000 151.000
32.82500 156.000
32.87000 153.000
32.91500 131.000
32.96000 147.000
33.00500 158.000
33.05000 166.000
33.09500 239.000
33.14000 201.000
33.18500 174.000
33.23000 189.000
33.27500 167.000
33.32000 166.000
33.36500 167.000
33.41000 166.000
33.45500 159.000
33.50000 176.000
33.54500 163.000
33.59000 183.000
33.63500 204.000
33.68000 266.000
33.72500 358.000
33.77000 313.000
33.81500 213.000
33.86000 219.000
33.90500 242.000
33.95000 271.000
33.99500 314.000
34.04000 209.000
34.08500 143.000
34.13000 158.000
34.17500 162.000
34.22000 162.000
34.26500 155.000
34.31000 155.000
34.35500 162.000
34.40000 171.000
34.44500 159.000
34.49000 155.000
34.53500 176.000
34.58000 140.000
34.62500 162.000
34.67000 138.000
34.71500 148.000
34.76000 140.000
34.80500 152.000
34.85000 153.000
34.89500 163.000
34.94000 174.000
34.98500 205.000
35.03000 150.000
35.07500 150.000
35.12000 147.000
35.16500 124.000
35.21000 138.000
35.25500 161.000
35.30000 162.000
35.34500 205.000
35.39000 173.000
35.43500 135.000
35.48000 130.000
35.52500 149.000
35.57000 148.000
35.61500 146.000
35.66000 142.000
35.70500 143.000
35.75000 188.000
35.79500 283.000
35.84000 324.000
35.88500 152.000
35.93000 156.000
35.97500 132.000
36.02000 116.000
36.06500 119.000
36.11000 121.000
36.15500 119.000
36.20000 113.000
36.24500 113.000
36.29000 127.000
36.33500 128.000
36.38000 122.000
36.42500 127.000
36.47000 173.000
36.51500 143.000
36.56000 127.000
36.60500 100.000
36.65000 132.000
36.69500 141.000
36.74000 129.000
36.78500 114.000
36.83000 128.000
36.87500 105.000
36.92000 121.000
36.96500 122.000
37.01000 113.000
37.05500 123.000
37.10000 126.000
37.14500 130.000
37.19000 107.000
37.23500 114.000
37.28000 116.000
37.32500 127.000
37.37000 109.000
37.41500 108.000
37.46000 117.000
37.50500 140.000
37.55000 146.000
37.59500 149.000
37.64000 132.000
37.68500 98.000
37.73000 119.000
37.77500 127.000
37.82000 92.000
37.86500 117.000
37.91000 112.000
37.95500 115.000
38.00000 107.000
38.04500 127.000
38.09000 119.000
38.13500 117.000
38.18000 113.000
38.22500 120.000
38.27000 129.000
38.31500 136.000
38.36000 105.000
38.40500 100.000
38.45000 106.000
38.49500 119.000
38.54000 112.000
38.58500 139.000
38.63000 134.000
38.67500 143.000
38.72000 171.000
38.76500 225.000
38.81000 309.000
38.85500 226.000
38.90000 148.000
38.94500 112.000
38.99000 136.000
39.03500 151.000
39.08000 158.000
39.12500 155.000
39.17000 115.000
39.21500 97.000
39.26000 112.000
39.30500 92.000
39.35000 117.000
39.39500 121.000
39.44000 128.000
39.48500 98.000
39.53000 114.000
39.57500 108.000
39.62000 98.000
39.66500 103.000
39.71000 110.000
39.75500 80.000
39.80000 107.000
39.84500 126.000
39.89000 129.000
39.93500 111.000
39.98000 110.000
40.02500 109.000
40.07000 90.000
40.11500 95.000
40.16000 109.000
40.20500 112.000
40.25000 111.000
40.29500 119.000
40.34000 115.000
40.38500 146.000
40.43000 144.000
40.47500 147.000
40.52000 158.000
40.56500 161.000
40.61000 134.000
40.65500 114.000
40.70000 114.000
40.74500 148.000
40.79000 206.000
40.83500 245.000
40.88000 168.000
40.92500 142.000
40.97000 141.000
41.01500 149.000
41.06000 112.000
41.10500 133.000
41.15000 122.000
41.19500 131.000
41.24000 141.000
41.28500 144.000
41.33000 129.000
41.37500 119.000
41.42000 105.000
41.46500 97.000
41.51000 101.000
41.55500 108.000
41.60000 99.000
41.64500 105.000
41.69000 124.000
41.73500 106.000
41.78000 106.000
41.82500 114.000
41.87000 123.000
41.91500 116.000
41.96000 110.000
42.00500 111.000
42.05000 118.000
42.09500 126.000
42.14000 115.000
42.18500 136.000
42.23000 148.000
42.27500 141.000
42.32000 149.000
42.36500 121.000
42.41000 118.000
42.45500 107.000
42.50000 93.000
42.54500 117.000
42.59000 104.000
42.63500 98.000
42.68000 98.000
42.72500 123.000
42.77000 118.000
42.81500 123.000
42.86000 110.000
42.90500 114.000
42.95000 106.000
42.99500 115.000
43.04000 119.000
43.08500 105.000
43.13000 115.000
43.17500 133.000
43.22000 112.000
43.26500 113.000
43.31000 117.000
43.35500 142.000
43.40000 139.000
43.44500 104.000
43.49000 120.000
43.53500 97.000
43.58000 95.000
43.62500 103.000
43.67000 101.000
43.71500 98.000
43.76000 95.000
43.80500 120.000
43.85000 120.000
43.89500 104.000
43.94000 97.000
43.98500 98.000
44.03000 113.000
44.07500 102.000
44.12000 118.000
44.16500 127.000
44.21000 131.000
44.25500 138.000
44.30000 152.000
44.34500 135.000
44.39000 114.000
44.43500 121.000
44.48000 107.000
44.52500 109.000
44.57000 136.000
44.61500 127.000
44.66000 160.000
44.70500 159.000
44.75000 125.000
44.79500 95.000
44.84000 125.000
44.88500 112.000
44.93000 100.000
44.97500 141.000
45.02000 138.000
45.06500 130.000
45.11000 108.000
45.15500 124.000
45.20000 109.000
45.24500 106.000
45.29000 95.000
45.33500 103.000
45.38000 103.000
45.42500 117.000
45.47000 138.000
45.51500 141.000
45.56000 117.000
45.60500 101.000
45.65000 85.000
45.69500 89.000
45.74000 86.000
45.78500 90.000
45.83000 111.000
45.87500 101.000
45.92000 86.000
45.96500 105.000
46.01000 99.000
46.05500 108.000
46.10000 119.000
46.14500 108.000
46.19000 122.000
46.23500 157.000
46.28000 157.000
46.32500 139.000
46.37000 119.000
46.41500 120.000
46.46000 120.000
46.50500 115.000
46.55000 98.000
46.59500 114.000
46.64000 106.000
46.68500 97.000
46.73000 118.000
46.77500 113.000
46.82000 147.000
46.86500 119.000
46.91000 117.000
46.95500 122.000
47.00000 150.000
47.04500 211.000
47.09000 160.000
47.13500 106.000
47.18000 122.000
47.22500 110.000
47.27000 99.000
47.31500 103.000
47.36000 106.000
47.40500 112.000
47.45000 100.000
47.49500 97.000
47.54000 97.000
47.58500 104.000
47.63000 111.000
47.67500 106.000
47.72000 136.000
47.76500 122.000
47.81000 89.000
47.85500 86.000
47.90000 123.000
47.94500 128.000
47.99000 112.000
48.03500 101.000
48.08000 85.000
48.12500 78.000
48.17000 84.000
48.21500 100.000
48.26000 81.000
48.30500 79.000
48.35000 106.000
48.39500 85.000
48.44000 114.000
48.48500 101.000
48.53000 94.000
48.57500 80.000
48.62000 99.000
48.66500 86.000
48.71000 85.000
48.75500 87.000
48.80000 93.000
48.84500 93.000
48.89000 95.000
48.93500 98.000
48.98000 107.000
49.02500 128.000
49.07000 125.000
49.11500 129.000
49.16000 104.000
49.20500 94.000
49.25000 105.000
49.29500 106.000
49.34000 111.000
49.38500 106.000
49.43000 92.000
49.47500 120.000
49.52000 110.000
49.56500 115.000
49.61000 110.000
49.65500 107.000
49.70000 107.000
49.74500 101.000
49.79000 105.000
49.83500 140.000
49.88000 101.000
49.92500 121.000
49.97000 116.000
50.01500 103.000
50.06000 112.000
50.10500 126.000
50.15000 105.000
50.19500 122.000
50.24000 106.000
50.28500 104.000
50.33000 114.000
50.37500 130.000
50.42000 134.000
50.46500 135.000
50.51000 118.000
50.55500 124.000
50.60000 106.000
50.64500 128.000
50.69000 114.000
50.73500 109.000
50.78000 115.000
50.82500 98.000
50.87000 93.000
50.91500 99.000
50.96000 98.000
51.00500 96.000
51.05000 96.000
51.09500 93.000
51.14000 100.000
51.18500 113.000
51.23000 117.000
51.27500 98.000
51.32000 112.000
51.36500 78.000
51.41000 94.000
51.45500 103.000
51.50000 103.000
51.54500 85.000
51.59000 99.000
51.63500 90.000
51.68000 105.000
51.72500 92.000
51.77000 86.000
51.81500 84.000
51.86000 88.000
51.90500 108.000
51.95000 82.000
51.99500 89.000
52.04000 98.000
52.08500 91.000
52.13000 111.000
52.17500 109.000
52.22000 109.000
52.26500 126.000
52.31000 125.000
52.35500 116.000
52.40000 97.000
52.44500 95.000
52.49000 81.000
52.53500 98.000
52.58000 84.000
52.62500 97.000
52.67000 93.000
52.71500 90.000
52.76000 117.000
52.80500 111.000
52.85000 110.000
52.89500 114.000
52.94000 126.000
52.98500 154.000
53.03000 127.000
53.07500 122.000
53.12000 114.000
53.16500 118.000
53.21000 119.000
53.25500 123.000
53.30000 122.000
53.34500 150.000
53.39000 152.000
53.43500 144.000
53.48000 126.000
53.52500 127.000
53.57000 102.000
53.61500 108.000
53.66000 97.000
53.70500 101.000
53.75000 100.000
53.79500 102.000
53.84000 88.000
53.88500 112.000
53.93000 138.000
53.97500 162.000
54.02000 139.000
54.06500 123.000
54.11000 110.000
54.15500 162.000
54.20000 153.000
54.24500 129.000
54.29000 102.000
54.33500 97.000
54.38000 99.000
54.42500 89.000
54.47000 96.000
54.51500 108.000
54.56000 109.000
54.60500 109.000
54.65000 118.000
54.69500 130.000
54.74000 131.000
54.78500 149.000
54.83000 135.000
54.87500 136.000
54.92000 120.000
54.96500 140.000
55.01000 137.000
55.05500 128.000
55.10000 131.000
55.14500 120.000
55.19000 96.000
55.23500 87.000
55.28000 96.000
55.32500 98.000
55.37000 107.000
55.41500 99.000
55.46000 100.000
55.50500 99.000
55.55000 89.000
55.59500 93.000
55.64000 101.000
55.68500 131.000
55.73000 140.000
55.77500 129.000
55.82000 88.000
55.86500 79.000
55.91000 86.000
55.95500 83.000
56.00000 92.000
56.04500 83.000
56.09000 87.000
56.13500 94.000
56.18000 90.000
56.22500 93.000
56.27000 78.000
56.31500 84.000
56.36000 80.000
56.40500 65.000
56.45000 83.000
56.49500 97.000
56.54000 98.000
56.58500 90.000
56.63000 105.000
56.67500 105.000
56.72000 115.000
56.76500 114.000
56.81000 116.000
56.85500 114.000
56.90000 91.000
56.94500 97.000
56.99000 84.000
57.03500 82.000
57.08000 90.000
57.12500 81.000
57.17000 86.000
57.21500 94.000
57.26000 89.000
57.30500 97.000
57.35000 78.000
57.39500 102.000
57.44000 113.000
57.48500 112.000
57.53000 104.000
57.57500 83.000
57.62000 82.000
57.66500 80.000
57.71000 77.000
57.75500 81.000
57.80000 93.000
57.84500 99.000
57.89000 92.000
57.93500 87.000
57.98000 86.000
58.02500 81.000
58.07000 75.000
58.11500 79.000
58.16000 88.000
58.20500 81.000
58.25000 100.000
58.29500 82.000
58.34000 90.000
58.38500 94.000
58.43000 108.000
58.47500 115.000
58.52000 105.000
58.56500 106.000
58.61000 113.000
58.65500 119.000
58.70000 92.000
58.74500 89.000
58.79000 84.000
58.83500 83.000
58.88000 75.000
58.92500 84.000
58.97000 90.000
59.01500 94.000
59.06000 86.000
59.10500 88.000
59.15000 91.000
59.19500 105.000
59.24000 80.000
59.28500 98.000
59.33000 84.000
59.37500 94.000
59.42000 98.000
59.46500 85.000
59.51000 91.000
59.55500 89.000
59.60000 77.000
59.64500 81.000
59.69000 89.000
59.73500 85.000
59.78000 94.000
59.82500 90.000
59.87000 103.000
59.91500 106.000
59.96000 100.000
60.00500 87.000
60.05000 88.000
60.09500 89.000
60.14000 98.000
60.18500 93.000
60.23000 95.000
60.27500 119.000
60.32000 85.000
60.36500 92.000
60.41000 110.000
60.45500 117.000
60.50000 121.000
60.54500 95.000
60.59000 96.000
60.63500 84.000
60.68000 71.000
60.72500 75.000
60.77000 72.000
60.81500 73.000
60.86000 75.000
60.90500 76.000
60.95000 70.000
60.99500 80.000
61.04000 84.000
61.08500 80.000
61.13000 69.000
61.17500 77.000
61.22000 79.000
61.26500 67.000
61.31000 67.000
61.35500 69.000
61.40000 76.000
61.44500 78.000
61.49000 96.000
61.53500 72.000
61.58000 69.000
61.62500 69.000
61.67000 75.000
61.71500 77.000
61.76000 78.000
61.80500 87.000
61.85000 80.000
61.89500 91.000
61.94000 92.000
61.98500 86.000