File: ISoD/xrd_data/HSC070.xy
2.00000 4.000
2.04500 2.000
2.09000 3.000
2.13500 4.000
2.18000 4.000
2.22500 3.000
2.27000 2.000
2.31500 4.000
2.36000 1.000
2.40500 3.000
2.45000 2.000
2.49500 2.000
2.54000 3.000
2.58500 3.000
2.63000 3.000
2.67500 1.000
2.72000 3.000
2.76500 5.000
2.81000 2.000
2.85500 4.000
2.90000 5.000
2.94500 4.000
2.99000 4.000
3.03500 1.000
3.08000 4.000
3.12500 12.000
3.17000 27.000
3.21500 24.000
3.26000 41.000
3.30500 47.000
3.35000 60.000
3.39500 64.000
3.44000 67.000
3.48500 68.000
3.53000 71.000
3.57500 70.000
3.62000 71.000
3.66500 71.000
3.71000 78.000
3.75500 91.000
3.80000 79.000
3.84500 84.000
3.89000 91.000
3.93500 80.000
3.98000 92.000
4.02500 94.000
4.07000 108.000
4.11500 96.000
4.16000 81.000
4.20500 102.000
4.25000 104.000
4.29500 104.000
4.34000 116.000
4.38500 106.000
4.43000 111.000
4.47500 97.000
4.52000 101.000
4.56500 104.000
4.61000 121.000
4.65500 120.000
4.70000 98.000
4.74500 128.000
4.79000 109.000
4.83500 125.000
4.88000 109.000
4.92500 119.000
4.97000 113.000
5.01500 126.000
5.06000 117.000
5.10500 123.000
5.15000 130.000
5.19500 125.000
5.24000 133.000
5.28500 120.000
5.33000 111.000
5.37500 137.000
5.42000 142.000
5.46500 146.000
5.51000 123.000
5.55500 125.000
5.60000 128.000
5.64500 115.000
5.69000 134.000
5.73500 122.000
5.78000 136.000
5.82500 129.000
5.87000 136.000
5.91500 152.000
5.96000 151.000
6.00500 148.000
6.05000 154.000
6.09500 132.000
6.14000 145.000
6.18500 145.000
6.23000 140.000
6.27500 140.000
6.32000 140.000
6.36500 145.000
6.41000 162.000
6.45500 172.000
6.50000 146.000
6.54500 127.000
6.59000 155.000
6.63500 138.000
6.68000 131.000
6.72500 169.000
6.77000 148.000
6.81500 150.000
6.86000 155.000
6.90500 136.000
6.95000 154.000
6.99500 163.000
7.04000 147.000
7.08500 168.000
7.13000 163.000
7.17500 178.000
7.22000 154.000
7.26500 140.000
7.31000 150.000
7.35500 166.000
7.40000 166.000
7.44500 174.000
7.49000 175.000
7.53500 153.000
7.58000 180.000
7.62500 175.000
7.67000 177.000
7.71500 139.000
7.76000 156.000
7.80500 152.000
7.85000 153.000
7.89500 154.000
7.94000 162.000
7.98500 162.000
8.03000 167.000
8.07500 169.000
8.12000 170.000
8.16500 171.000
8.21000 172.000
8.25500 174.000
8.30000 177.000
8.34500 178.000
8.39000 207.000
8.43500 236.000
8.48000 295.000
8.52500 377.000
8.57000 513.000
8.61500 732.000
8.66000 1141.000
8.70500 1942.000
8.75000 3271.000
8.79500 5096.000
8.84000 1478.000
8.88500 371.000
8.93000 240.000
8.97500 215.000
9.02000 180.000
9.06500 190.000
9.11000 171.000
9.15500 173.000
9.20000 175.000
9.24500 166.000
9.29000 174.000
9.33500 169.000
9.38000 159.000
9.42500 146.000
9.47000 184.000
9.51500 182.000
9.56000 192.000
9.60500 164.000
9.65000 173.000
9.69500 188.000
9.74000 162.000
9.78500 181.000
9.83000 170.000
9.87500 185.000
9.92000 169.000
9.96500 159.000
10.01000 161.000
10.05500 172.000
10.10000 194.000
10.14500 168.000
10.19000 176.000
10.23500 177.000
10.28000 158.000
10.32500 159.000
10.37000 165.000
10.41500 173.000
10.46000 191.000
10.50500 188.000
10.55000 157.000
10.59500 198.000
10.64000 177.000
10.68500 171.000
10.73000 147.000
10.77500 177.000
10.82000 162.000
10.86500 167.000
10.91000 160.000
10.95500 167.000
11.00000 174.000
11.04500 167.000
11.09000 177.000
11.13500 165.000
11.18000 175.000
11.22500 161.000
11.27000 161.000
11.31500 177.000
11.36000 192.000
11.40500 200.000
11.45000 170.000
11.49500 174.000
11.54000 154.000
11.58500 155.000
11.63000 182.000
11.67500 152.000
11.72000 164.000
11.76500 165.000
11.81000 162.000
11.85500 177.000
11.90000 188.000
11.94500 170.000
11.99000 194.000
12.03500 177.000
12.08000 172.000
12.12500 192.000
12.17000 186.000
12.21500 165.000
12.26000 189.000
12.30500 169.000
12.35000 180.000
12.39500 178.000
12.44000 169.000
12.48500 175.000
12.53000 159.000
12.57500 186.000
12.62000 184.000
12.66500 200.000
12.71000 209.000
12.75500 224.000
12.80000 197.000
12.84500 201.000
12.89000 235.000
12.93500 266.000
12.98000 355.000
13.02500 523.000
13.07000 896.000
13.11500 1586.000
13.16000 879.000
13.20500 226.000
13.25000 193.000
13.29500 177.000
13.34000 176.000
13.38500 182.000
13.43000 174.000
13.47500 181.000
13.52000 173.000
13.56500 165.000
13.61000 191.000
13.65500 155.000
13.70000 174.000
13.74500 169.000
13.79000 178.000
13.83500 189.000
13.88000 194.000
13.92500 179.000
13.97000 185.000
14.01500 184.000
14.06000 176.000
14.10500 169.000
14.15000 177.000
14.19500 187.000
14.24000 183.000
14.28500 200.000
14.33000 174.000
14.37500 169.000
14.42000 169.000
14.46500 186.000
14.51000 184.000
14.55500 187.000
14.60000 205.000
14.64500 222.000
14.69000 250.000
14.73500 313.000
14.78000 434.000
14.82500 851.000
14.87000 1580.000
14.91500 753.000
14.96000 240.000
15.00500 239.000
15.05000 245.000
15.09500 307.000
15.14000 432.000
15.18500 608.000
15.23000 648.000
15.27500 395.000
15.32000 266.000
15.36500 221.000
15.41000 206.000
15.45500 191.000
15.50000 173.000
15.54500 178.000
15.59000 196.000
15.63500 202.000
15.68000 197.000
15.72500 188.000
15.77000 243.000
15.81500 289.000
15.86000 308.000
15.90500 234.000
15.95000 183.000
15.99500 201.000
16.04000 177.000
16.08500 190.000
16.13000 188.000
16.17500 191.000
16.22000 207.000
16.26500 174.000
16.31000 183.000
16.35500 205.000
16.40000 179.000
16.44500 176.000
16.49000 181.000
16.53500 186.000
16.58000 174.000
16.62500 194.000
16.67000 170.000
16.71500 185.000
16.76000 191.000
16.80500 184.000
16.85000 184.000
16.89500 187.000
16.94000 182.000
16.98500 197.000
17.03000 186.000
17.07500 179.000
17.12000 198.000
17.16500 217.000
17.21000 208.000
17.25500 203.000
17.30000 237.000
17.34500 323.000
17.39000 499.000
17.43500 1145.000
17.48000 1808.000
17.52500 1092.000
17.57000 2016.000
17.61500 2812.000
17.66000 3734.000
17.70500 5030.000
17.75000 1284.000
17.79500 700.000
17.84000 1543.000
17.88500 4330.000
17.93000 1429.000
17.97500 285.000
18.02000 306.000
18.06500 351.000
18.11000 347.000
18.15500 211.000
18.20000 197.000
18.24500 193.000
18.29000 193.000
18.33500 208.000
18.38000 189.000
18.42500 185.000
18.47000 185.000
18.51500 191.000
18.56000 167.000
18.60500 195.000
18.65000 200.000
18.69500 200.000
18.74000 168.000
18.78500 190.000
18.83000 204.000
18.87500 242.000
18.92000 287.000
18.96500 497.000
19.01000 939.000
19.05500 1888.000
19.10000 901.000
19.14500 317.000
19.19000 213.000
19.23500 226.000
19.28000 204.000
19.32500 196.000
19.37000 171.000
19.41500 193.000
19.46000 170.000
19.50500 194.000
19.55000 208.000
19.59500 177.000
19.64000 192.000
19.68500 172.000
19.73000 212.000
19.77500 194.000
19.82000 193.000
19.86500 185.000
19.91000 191.000
19.95500 183.000
20.00000 200.000
20.04500 235.000
20.09000 269.000
20.13500 332.000
20.18000 501.000
20.22500 456.000
20.27000 244.000
20.31500 215.000
20.36000 191.000
20.40500 206.000
20.45000 195.000
20.49500 213.000
20.54000 205.000
20.58500 197.000
20.63000 179.000
20.67500 207.000
20.72000 189.000
20.76500 208.000
20.81000 195.000
20.85500 213.000
20.90000 198.000
20.94500 190.000
20.99000 187.000
21.03500 189.000
21.08000 199.000
21.12500 205.000
21.17000 200.000
21.21500 210.000
21.26000 204.000
21.30500 207.000
21.35000 219.000
21.39500 240.000
21.44000 252.000
21.48500 373.000
21.53000 473.000
21.57500 817.000
21.62000 2210.000
21.66500 4701.000
21.71000 1568.000
21.75500 379.000
21.80000 240.000
21.84500 235.000
21.89000 235.000
21.93500 337.000
21.98000 616.000
22.02500 1267.000
22.07000 2617.000
22.11500 1208.000
22.16000 376.000
22.20500 230.000
22.25000 213.000
22.29500 202.000
22.34000 221.000
22.38500 222.000
22.43000 215.000
22.47500 219.000
22.52000 213.000
22.56500 208.000
22.61000 230.000
22.65500 214.000
22.70000 207.000
22.74500 199.000
22.79000 209.000
22.83500 200.000
22.88000 207.000
22.92500 202.000
22.97000 202.000
23.01500 225.000
23.06000 199.000
23.10500 210.000
23.15000 212.000
23.19500 243.000
23.24000 267.000
23.28500 351.000
23.33000 551.000
23.37500 919.000
23.42000 643.000
23.46500 362.000
23.51000 273.000
23.55500 228.000
23.60000 237.000
23.64500 226.000
23.69000 234.000
23.73500 231.000
23.78000 242.000
23.82500 231.000
23.87000 274.000
23.91500 308.000
23.96000 444.000
24.00500 769.000
24.05000 1097.000
24.09500 755.000
24.14000 438.000
24.18500 293.000
24.23000 275.000
24.27500 291.000
24.32000 361.000
24.36500 478.000
24.41000 995.000
24.45500 1871.000
24.50000 2458.000
24.54500 1344.000
24.59000 467.000
24.63500 322.000
24.68000 261.000
24.72500 246.000
24.77000 253.000
24.81500 240.000
24.86000 224.000
24.90500 236.000
24.95000 264.000
24.99500 369.000
25.04000 542.000
25.08500 1255.000
25.13000 1405.000
25.17500 532.000
25.22000 341.000
25.26500 354.000
25.31000 430.000
25.35500 825.000
25.40000 1605.000
25.44500 2255.000
25.49000 1677.000
25.53500 1027.000
25.58000 921.000
25.62500 1485.000
25.67000 1810.000
25.71500 1238.000
25.76000 2221.000
25.80500 2396.000
25.85000 447.000
25.89500 277.000
25.94000 271.000
25.98500 263.000
26.03000 321.000
26.07500 631.000
26.12000 1851.000
26.16500 5446.000
26.21000 8660.000
26.25500 2472.000
26.30000 581.000
26.34500 381.000
26.39000 451.000
26.43500 576.000
26.48000 435.000
26.52500 462.000
26.57000 845.000
26.61500 1628.000
26.66000 2368.000
26.70500 998.000
26.75000 399.000
26.79500 281.000
26.84000 268.000
26.88500 278.000
26.93000 320.000
26.97500 364.000
27.02000 594.000
27.06500 1835.000
27.11000 3023.000
27.15500 582.000
27.20000 410.000
27.24500 505.000
27.29000 333.000
27.33500 270.000
27.38000 273.000
27.42500 270.000
27.47000 380.000
27.51500 530.000
27.56000 506.000
27.60500 348.000
27.65000 276.000
27.69500 232.000
27.74000 257.000
27.78500 251.000
27.83000 266.000
27.87500 290.000
27.92000 437.000
27.96500 872.000
28.01000 2172.000
28.05500 3660.000
28.10000 1848.000
28.14500 603.000
28.19000 343.000
28.23500 263.000
28.28000 251.000
28.32500 235.000
28.37000 226.000
28.41500 256.000
28.46000 271.000
28.50500 236.000
28.55000 214.000
28.59500 235.000
28.64000 240.000
28.68500 261.000
28.73000 485.000
28.77500 1300.000
28.82000 2993.000
28.86500 2240.000
28.91000 662.000
28.95500 323.000
29.00000 315.000
29.04500 330.000
29.09000 268.000
29.13500 275.000
29.18000 271.000
29.22500 336.000
29.27000 316.000
29.31500 271.000
29.36000 235.000
29.40500 229.000
29.45000 210.000
29.49500 192.000
29.54000 218.000
29.58500 238.000
29.63000 262.000
29.67500 317.000
29.72000 768.000
29.76500 1990.000
29.81000 3919.000
29.85500 2840.000
29.90000 792.000
29.94500 346.000
29.99000 232.000
30.03500 207.000
30.08000 243.000
30.12500 209.000
30.17000 205.000
30.21500 230.000
30.26000 231.000
30.30500 368.000
30.35000 467.000
30.39500 285.000
30.44000 228.000
30.48500 218.000
30.53000 232.000
30.57500 247.000
30.62000 236.000
30.66500 284.000
30.71000 386.000
30.75500 463.000
30.80000 495.000
30.84500 418.000
30.89000 310.000
30.93500 228.000
30.98000 226.000
31.02500 250.000
31.07000 323.000
31.11500 446.000
31.16000 360.000
31.20500 301.000
31.25000 343.000
31.29500 461.000
31.34000 749.000
31.38500 882.000
31.43000 652.000
31.47500 489.000
31.52000 418.000
31.56500 483.000
31.61000 739.000
31.65500 1025.000
31.70000 830.000
31.74500 440.000
31.79000 308.000
31.83500 264.000
31.88000 236.000
31.92500 245.000
31.97000 280.000
32.01500 293.000
32.06000 244.000
32.10500 210.000
32.15000 216.000
32.19500 202.000
32.24000 159.000
32.28500 195.000
32.33000 161.000
32.37500 190.000
32.42000 177.000
32.46500 183.000
32.51000 191.000
32.55500 192.000
32.60000 174.000
32.64500 169.000
32.69000 160.000
32.73500 177.000
32.78000 181.000
32.82500 177.000
32.87000 167.000
32.91500 169.000
32.96000 196.000
33.00500 163.000
33.05000 165.000
33.09500 183.000
33.14000 157.000
33.18500 167.000
33.23000 174.000
33.27500 186.000
33.32000 226.000
33.36500 355.000
33.41000 530.000
33.45500 434.000
33.50000 257.000
33.54500 192.000
33.59000 171.000
33.63500 188.000
33.68000 177.000
33.72500 225.000
33.77000 281.000
33.81500 596.000
33.86000 682.000
33.90500 349.000
33.95000 185.000
33.99500 185.000
34.04000 163.000
34.08500 194.000
34.13000 180.000
34.17500 173.000
34.22000 159.000
34.26500 168.000
34.31000 209.000
34.35500 347.000
34.40000 327.000
34.44500 309.000
34.49000 528.000
34.53500 880.000
34.58000 604.000
34.62500 282.000
34.67000 207.000
34.71500 194.000
34.76000 220.000
34.80500 248.000
34.85000 251.000
34.89500 261.000
34.94000 334.000
34.98500 536.000
35.03000 1032.000
35.07500 1365.000
35.12000 857.000
35.16500 445.000
35.21000 305.000
35.25500 226.000
35.30000 235.000
35.34500 192.000
35.39000 193.000
35.43500 218.000
35.48000 224.000
35.52500 287.000
35.57000 370.000
35.61500 445.000
35.66000 549.000
35.70500 571.000
35.75000 517.000
35.79500 628.000
35.84000 780.000
35.88500 544.000
35.93000 343.000
35.97500 295.000
36.02000 273.000
36.06500 209.000
36.11000 239.000
36.15500 349.000
36.20000 651.000
36.24500 1031.000
36.29000 503.000
36.33500 222.000
36.38000 240.000
36.42500 346.000
36.47000 594.000
36.51500 571.000
36.56000 364.000
36.60500 275.000
36.65000 300.000
36.69500 291.000
36.74000 289.000
36.78500 319.000
36.83000 332.000
36.87500 365.000
36.92000 398.000
36.96500 351.000
37.01000 314.000
37.05500 322.000
37.10000 482.000
37.14500 917.000
37.19000 774.000
37.23500 335.000
37.28000 203.000
37.32500 161.000
37.37000 150.000
37.41500 166.000
37.46000 168.000
37.50500 209.000
37.55000 248.000
37.59500 342.000
37.64000 450.000
37.68500 419.000
37.73000 268.000
37.77500 231.000
37.82000 215.000
37.86500 170.000
37.91000 185.000
37.95500 160.000
38.00000 151.000
38.04500 137.000
38.09000 190.000
38.13500 216.000
38.18000 259.000
38.22500 384.000
38.27000 469.000
38.31500 795.000
38.36000 1467.000
38.40500 584.000
38.45000 227.000
38.49500 172.000
38.54000 182.000
38.58500 196.000
38.63000 280.000
38.67500 248.000
38.72000 195.000
38.76500 187.000
38.81000 217.000
38.85500 296.000
38.90000 395.000
38.94500 389.000
38.99000 426.000
39.03500 412.000
39.08000 280.000
39.12500 222.000
39.17000 194.000
39.21500 175.000
39.26000 147.000
39.30500 136.000
39.35000 147.000
39.39500 151.000
39.44000 131.000
39.48500 151.000
39.53000 156.000
39.57500 205.000
39.62000 198.000
39.66500 199.000
39.71000 214.000
39.75500 228.000
39.80000 183.000
39.84500 180.000
39.89000 163.000
39.93500 170.000
39.98000 168.000
40.02500 188.000
40.07000 233.000
40.11500 273.000
40.16000 319.000
40.20500 352.000
40.25000 379.000
40.29500 267.000
40.34000 249.000
40.38500 269.000
40.43000 333.000
40.47500 380.000
40.52000 623.000
40.56500 864.000
40.61000 646.000
40.65500 321.000
40.70000 237.000
40.74500 222.000
40.79000 195.000
40.83500 180.000
40.88000 172.000
40.92500 201.000
40.97000 352.000
41.01500 354.000
41.06000 243.000
41.10500 144.000
41.15000 168.000
41.19500 147.000
41.24000 138.000
41.28500 118.000
41.33000 148.000
41.37500 136.000
41.42000 138.000
41.46500 150.000
41.51000 149.000
41.55500 135.000
41.60000 141.000
41.64500 151.000
41.69000 163.000
41.73500 221.000
41.78000 265.000
41.82500 245.000
41.87000 191.000
41.91500 202.000
41.96000 210.000
42.00500 190.000
42.05000 215.000
42.09500 251.000
42.14000 300.000
42.18500 278.000
42.23000 262.000
42.27500 228.000
42.32000 220.000
42.36500 214.000
42.41000 245.000
42.45500 366.000
42.50000 441.000
42.54500 430.000
42.59000 315.000
42.63500 276.000
42.68000 414.000
42.72500 479.000
42.77000 290.000
42.81500 198.000
42.86000 167.000
42.90500 185.000
42.95000 220.000
42.99500 284.000
43.04000 293.000
43.08500 214.000
43.13000 167.000
43.17500 172.000
43.22000 175.000
43.26500 172.000
43.31000 156.000
43.35500 221.000
43.40000 248.000
43.44500 310.000
43.49000 429.000
43.53500 459.000
43.58000 360.000
43.62500 236.000
43.67000 191.000
43.71500 186.000
43.76000 233.000
43.80500 236.000
43.85000 242.000
43.89500 239.000
43.94000 301.000
43.98500 356.000
44.03000 361.000
44.07500 311.000
44.12000 374.000
44.16500 396.000
44.21000 354.000
44.25500 326.000
44.30000 328.000
44.34500 341.000
44.39000 274.000
44.43500 232.000
44.48000 196.000
44.52500 188.000
44.57000 205.000
44.61500 196.000
44.66000 189.000
44.70500 173.000
44.75000 194.000
44.79500 283.000
44.84000 523.000
44.88500 408.000
44.93000 270.000
44.97500 253.000
45.02000 307.000
45.06500 363.000
45.11000 360.000
45.15500 343.000
45.20000 293.000
45.24500 266.000
45.29000 259.000
45.33500 269.000
45.38000 309.000
45.42500 376.000
45.47000 356.000
45.51500 441.000
45.56000 523.000
45.60500 651.000
45.65000 584.000
45.69500 368.000
45.74000 298.000
45.78500 230.000
45.83000 189.000
45.87500 163.000
45.92000 164.000
45.96500 149.000
46.01000 143.000
46.05500 154.000
46.10000 160.000
46.14500 150.000
46.19000 194.000
46.23500 207.000
46.28000 192.000
46.32500 181.000
46.37000 167.000
46.41500 144.000
46.46000 157.000
46.50500 168.000
46.55000 146.000
46.59500 151.000
46.64000 150.000
46.68500 172.000
46.73000 200.000
46.77500 212.000
46.82000 293.000
46.86500 267.000
46.91000 262.000
46.95500 341.000
47.00000 448.000
47.04500 540.000
47.09000 505.000
47.13500 401.000
47.18000 293.000
47.22500 272.000
47.27000 222.000
47.31500 229.000
47.36000 282.000
47.40500 259.000
47.45000 268.000
47.49500 493.000
47.54000 918.000
47.58500 861.000
47.63000 488.000
47.67500 436.000
47.72000 481.000
47.76500 417.000
47.81000 399.000
47.85500 371.000
47.90000 412.000
47.94500 471.000
47.99000 519.000
48.03500 483.000
48.08000 426.000
48.12500 425.000
48.17000 421.000
48.21500 426.000
48.26000 423.000
48.30500 508.000
48.35000 455.000
48.39500 295.000
48.44000 217.000
48.48500 200.000
48.53000 217.000
48.57500 207.000
48.62000 209.000
48.66500 249.000
48.71000 230.000
48.75500 205.000
48.80000 207.000
48.84500 235.000
48.89000 221.000
48.93500 235.000
48.98000 267.000
49.02500 346.000
49.07000 453.000
49.11500 446.000
49.16000 316.000
49.20500 207.000
49.25000 175.000
49.29500 189.000
49.34000 171.000
49.38500 186.000
49.43000 250.000
49.47500 254.000
49.52000 282.000
49.56500 212.000
49.61000 203.000
49.65500 174.000
49.70000 176.000
49.74500 205.000
49.79000 206.000
49.83500 162.000
49.88000 160.000
49.92500 144.000
49.97000 153.000
50.01500 181.000
50.06000 220.000
50.10500 322.000
50.15000 431.000
50.19500 421.000
50.24000 341.000
50.28500 355.000
50.33000 381.000
50.37500 287.000
50.42000 271.000
50.46500 239.000
50.51000 174.000
50.55500 151.000
50.60000 152.000
50.64500 159.000
50.69000 152.000
50.73500 171.000
50.78000 155.000
50.82500 170.000
50.87000 167.000
50.91500 143.000
50.96000 166.000
51.00500 136.000
51.05000 130.000
51.09500 176.000
51.14000 150.000
51.18500 157.000
51.23000 201.000
51.27500 178.000
51.32000 184.000
51.36500 184.000
51.41000 194.000
51.45500 288.000
51.50000 328.000
51.54500 331.000
51.59000 313.000
51.63500 285.000
51.68000 345.000
51.72500 331.000
51.77000 342.000
51.81500 285.000
51.86000 251.000
51.90500 240.000
51.95000 218.000
51.99500 204.000
52.04000 198.000
52.08500 194.000
52.13000 207.000
52.17500 243.000
52.22000 292.000
52.26500 351.000
52.31000 320.000
52.35500 261.000
52.40000 228.000
52.44500 242.000
52.49000 208.000
52.53500 164.000
52.58000 173.000
52.62500 196.000
52.67000 230.000
52.71500 184.000
52.76000 195.000
52.80500 174.000
52.85000 250.000
52.89500 344.000
52.94000 518.000
52.98500 658.000
53.03000 504.000
53.07500 319.000
53.12000 213.000
53.16500 178.000
53.21000 177.000
53.25500 174.000
53.30000 148.000
53.34500 147.000
53.39000 133.000
53.43500 131.000
53.48000 167.000
53.52500 152.000
53.57000 180.000
53.61500 182.000
53.66000 187.000
53.70500 190.000
53.75000 153.000
53.79500 147.000
53.84000 154.000
53.88500 161.000
53.93000 136.000
53.97500 140.000
54.02000 127.000
54.06500 142.000
54.11000 165.000
54.15500 236.000
54.20000 310.000
54.24500 314.000
54.29000 250.000
54.33500 195.000
54.38000 164.000
54.42500 177.000
54.47000 244.000
54.51500 336.000
54.56000 276.000
54.60500 193.000
54.65000 183.000
54.69500 179.000
54.74000 233.000
54.78500 318.000
54.83000 404.000
54.87500 416.000
54.92000 402.000
54.96500 354.000
55.01000 299.000
55.05500 271.000
55.10000 254.000
55.14500 268.000
55.19000 328.000
55.23500 263.000
55.28000 197.000
55.32500 249.000
55.37000 339.000
55.41500 388.000
55.46000 366.000
55.50500 360.000
55.55000 435.000
55.59500 586.000
55.64000 591.000
55.68500 466.000
55.73000 245.000
55.77500 208.000
55.82000 226.000
55.86500 278.000
55.91000 280.000
55.95500 230.000
56.00000 230.000
56.04500 233.000
56.09000 235.000
56.13500 243.000
56.18000 327.000
56.22500 346.000
56.27000 299.000
56.31500 199.000
56.36000 157.000
56.40500 154.000
56.45000 127.000
56.49500 160.000
56.54000 150.000
56.58500 175.000
56.63000 187.000
56.67500 231.000
56.72000 221.000
56.76500 197.000
56.81000 163.000
56.85500 154.000
56.90000 159.000
56.94500 162.000
56.99000 148.000
57.03500 149.000
57.08000 173.000
57.12500 224.000
57.17000 261.000
57.21500 276.000
57.26000 214.000
57.30500 188.000
57.35000 171.000
57.39500 161.000
57.44000 165.000
57.48500 157.000
57.53000 146.000
57.57500 134.000
57.62000 153.000
57.66500 171.000
57.71000 202.000
57.75500 197.000
57.80000 186.000
57.84500 168.000
57.89000 172.000
57.93500 180.000
57.98000 199.000
58.02500 185.000
58.07000 173.000
58.11500 163.000
58.16000 146.000
58.20500 153.000
58.25000 146.000
58.29500 131.000
58.34000 143.000
58.38500 139.000
58.43000 159.000
58.47500 124.000
58.52000 128.000
58.56500 134.000
58.61000 143.000
58.65500 130.000
58.70000 133.000
58.74500 155.000
58.79000 175.000
58.83500 194.000
58.88000 211.000
58.92500 220.000
58.97000 195.000
59.01500 170.000
59.06000 190.000
59.10500 198.000
59.15000 261.000
59.19500 227.000
59.24000 209.000
59.28500 196.000
59.33000 210.000
59.37500 183.000
59.42000 226.000
59.46500 201.000
59.51000 234.000
59.55500 260.000
59.60000 249.000
59.64500 187.000
59.69000 172.000
59.73500 165.000
59.78000 162.000
59.82500 164.000
59.87000 169.000
59.91500 170.000
59.96000 188.000
60.00500 196.000
60.05000 176.000
60.09500 164.000
60.14000 189.000
60.18500 208.000
60.23000 192.000
60.27500 176.000
60.32000 166.000
60.36500 164.000
60.41000 166.000
60.45500 183.000
60.50000 233.000
60.54500 263.000
60.59000 311.000
60.63500 212.000
60.68000 213.000
60.72500 171.000
60.77000 161.000
60.81500 154.000
60.86000 166.000
60.90500 147.000
60.95000 128.000
60.99500 164.000
61.04000 174.000
61.08500 166.000
61.13000 187.000
61.17500 157.000
61.22000 192.000
61.26500 196.000
61.31000 192.000
61.35500 187.000
61.40000 165.000
61.44500 163.000
61.49000 161.000
61.53500 135.000
61.58000 143.000
61.62500 156.000
61.67000 155.000
61.71500 143.000
61.76000 163.000
61.80500 165.000
61.85000 163.000
61.89500 154.000
61.94000 206.000
61.98500 193.000