File: ISoD/xrd_data/HSC005II.xy
2.00000 380.000
2.04500 399.000
2.09000 364.000
2.13500 360.000
2.18000 336.000
2.22500 338.000
2.27000 311.000
2.31500 302.000
2.36000 301.000
2.40500 284.000
2.45000 278.000
2.49500 297.000
2.54000 294.000
2.58500 287.000
2.63000 285.000
2.67500 270.000
2.72000 274.000
2.76500 245.000
2.81000 277.000
2.85500 284.000
2.90000 246.000
2.94500 246.000
2.99000 262.000
3.03500 237.000
3.08000 288.000
3.12500 267.000
3.17000 258.000
3.21500 255.000
3.26000 239.000
3.30500 254.000
3.35000 222.000
3.39500 238.000
3.44000 276.000
3.48500 255.000
3.53000 265.000
3.57500 252.000
3.62000 245.000
3.66500 273.000
3.71000 261.000
3.75500 256.000
3.80000 233.000
3.84500 233.000
3.89000 235.000
3.93500 255.000
3.98000 258.000
4.02500 257.000
4.07000 268.000
4.11500 251.000
4.16000 259.000
4.20500 247.000
4.25000 247.000
4.29500 257.000
4.34000 280.000
4.38500 244.000
4.43000 239.000
4.47500 249.000
4.52000 251.000
4.56500 276.000
4.61000 239.000
4.65500 231.000
4.70000 227.000
4.74500 249.000
4.79000 262.000
4.83500 243.000
4.88000 295.000
4.92500 265.000
4.97000 242.000
5.01500 277.000
5.06000 250.000
5.10500 261.000
5.15000 262.000
5.19500 261.000
5.24000 266.000
5.28500 229.000
5.33000 247.000
5.37500 285.000
5.42000 263.000
5.46500 231.000
5.51000 262.000
5.55500 249.000
5.60000 252.000
5.64500 251.000
5.69000 281.000
5.73500 263.000
5.78000 254.000
5.82500 262.000
5.87000 257.000
5.91500 267.000
5.96000 267.000
6.00500 259.000
6.05000 262.000
6.09500 318.000
6.14000 285.000
6.18500 258.000
6.23000 260.000
6.27500 274.000
6.32000 278.000
6.36500 277.000
6.41000 270.000
6.45500 243.000
6.50000 276.000
6.54500 277.000
6.59000 259.000
6.63500 283.000
6.68000 282.000
6.72500 254.000
6.77000 257.000
6.81500 269.000
6.86000 270.000
6.90500 254.000
6.95000 258.000
6.99500 278.000
7.04000 241.000
7.08500 262.000
7.13000 242.000
7.17500 246.000
7.22000 234.000
7.26500 268.000
7.31000 269.000
7.35500 261.000
7.40000 259.000
7.44500 246.000
7.49000 254.000
7.53500 246.000
7.58000 263.000
7.62500 276.000
7.67000 248.000
7.71500 235.000
7.76000 263.000
7.80500 252.000
7.85000 265.000
7.89500 256.000
7.94000 255.000
7.98500 266.000
8.03000 251.000
8.07500 248.000
8.12000 245.000
8.16500 258.000
8.21000 245.000
8.25500 249.000
8.30000 257.000
8.34500 270.000
8.39000 239.000
8.43500 264.000
8.48000 241.000
8.52500 252.000
8.57000 231.000
8.61500 254.000
8.66000 238.000
8.70500 239.000
8.75000 234.000
8.79500 246.000
8.84000 266.000
8.88500 241.000
8.93000 271.000
8.97500 242.000
9.02000 245.000
9.06500 241.000
9.11000 234.000
9.15500 238.000
9.20000 263.000
9.24500 276.000
9.29000 251.000
9.33500 264.000
9.38000 275.000
9.42500 260.000
9.47000 238.000
9.51500 257.000
9.56000 258.000
9.60500 253.000
9.65000 263.000
9.69500 251.000
9.74000 258.000
9.78500 265.000
9.83000 253.000
9.87500 240.000
9.92000 260.000
9.96500 261.000
10.01000 283.000
10.05500 256.000
10.10000 237.000
10.14500 248.000
10.19000 260.000
10.23500 265.000
10.28000 259.000
10.32500 250.000
10.37000 259.000
10.41500 260.000
10.46000 276.000
10.50500 261.000
10.55000 223.000
10.59500 272.000
10.64000 236.000
10.68500 272.000
10.73000 261.000
10.77500 265.000
10.82000 285.000
10.86500 248.000
10.91000 283.000
10.95500 268.000
11.00000 272.000
11.04500 255.000
11.09000 242.000
11.13500 248.000
11.18000 267.000
11.22500 268.000
11.27000 285.000
11.31500 260.000
11.36000 273.000
11.40500 255.000
11.45000 248.000
11.49500 253.000
11.54000 252.000
11.58500 240.000
11.63000 264.000
11.67500 244.000
11.72000 283.000
11.76500 293.000
11.81000 287.000
11.85500 325.000
11.90000 380.000
11.94500 537.000
11.99000 741.000
12.03500 1125.000
12.08000 746.000
12.12500 395.000
12.17000 347.000
12.21500 352.000
12.26000 323.000
12.30500 297.000
12.35000 265.000
12.39500 279.000
12.44000 276.000
12.48500 284.000
12.53000 266.000
12.57500 280.000
12.62000 279.000
12.66500 275.000
12.71000 252.000
12.75500 242.000
12.80000 264.000
12.84500 242.000
12.89000 254.000
12.93500 250.000
12.98000 262.000
13.02500 253.000
13.07000 255.000
13.11500 256.000
13.16000 264.000
13.20500 247.000
13.25000 231.000
13.29500 263.000
13.34000 256.000
13.38500 252.000
13.43000 267.000
13.47500 259.000
13.52000 246.000
13.56500 273.000
13.61000 251.000
13.65500 272.000
13.70000 264.000
13.74500 278.000
13.79000 256.000
13.83500 253.000
13.88000 244.000
13.92500 280.000
13.97000 256.000
14.01500 243.000
14.06000 252.000
14.10500 233.000
14.15000 265.000
14.19500 257.000
14.24000 255.000
14.28500 289.000
14.33000 264.000
14.37500 277.000
14.42000 247.000
14.46500 252.000
14.51000 247.000
14.55500 246.000
14.60000 251.000
14.64500 257.000
14.69000 260.000
14.73500 265.000
14.78000 248.000
14.82500 261.000
14.87000 269.000
14.91500 271.000
14.96000 253.000
15.00500 283.000
15.05000 247.000
15.09500 266.000
15.14000 252.000
15.18500 240.000
15.23000 260.000
15.27500 281.000
15.32000 284.000
15.36500 255.000
15.41000 246.000
15.45500 268.000
15.50000 268.000
15.54500 259.000
15.59000 281.000
15.63500 243.000
15.68000 296.000
15.72500 264.000
15.77000 275.000
15.81500 241.000
15.86000 263.000
15.90500 281.000
15.95000 262.000
15.99500 288.000
16.04000 263.000
16.08500 242.000
16.13000 264.000
16.17500 251.000
16.22000 247.000
16.26500 271.000
16.31000 272.000
16.35500 259.000
16.40000 253.000
16.44500 265.000
16.49000 263.000
16.53500 266.000
16.58000 282.000
16.62500 271.000
16.67000 287.000
16.71500 253.000
16.76000 280.000
16.80500 310.000
16.85000 261.000
16.89500 273.000
16.94000 270.000
16.98500 265.000
17.03000 283.000
17.07500 293.000
17.12000 267.000
17.16500 288.000
17.21000 277.000
17.25500 308.000
17.30000 266.000
17.34500 273.000
17.39000 308.000
17.43500 279.000
17.48000 288.000
17.52500 284.000
17.57000 294.000
17.61500 265.000
17.66000 331.000
17.70500 281.000
17.75000 312.000
17.79500 330.000
17.84000 316.000
17.88500 296.000
17.93000 301.000
17.97500 311.000
18.02000 298.000
18.06500 307.000
18.11000 297.000
18.15500 302.000
18.20000 297.000
18.24500 324.000
18.29000 330.000
18.33500 310.000
18.38000 306.000
18.42500 307.000
18.47000 291.000
18.51500 317.000
18.56000 313.000
18.60500 317.000
18.65000 303.000
18.69500 303.000
18.74000 314.000
18.78500 329.000
18.83000 284.000
18.87500 307.000
18.92000 281.000
18.96500 310.000
19.01000 319.000
19.05500 281.000
19.10000 312.000
19.14500 322.000
19.19000 303.000
19.23500 331.000
19.28000 299.000
19.32500 296.000
19.37000 274.000
19.41500 300.000
19.46000 298.000
19.50500 311.000
19.55000 308.000
19.59500 310.000
19.64000 328.000
19.68500 279.000
19.73000 312.000
19.77500 292.000
19.82000 337.000
19.86500 312.000
19.91000 316.000
19.95500 324.000
20.00000 324.000
20.04500 323.000
20.09000 346.000
20.13500 326.000
20.18000 288.000
20.22500 336.000
20.27000 287.000
20.31500 310.000
20.36000 332.000
20.40500 360.000
20.45000 298.000
20.49500 311.000
20.54000 336.000
20.58500 365.000
20.63000 361.000
20.67500 352.000
20.72000 391.000
20.76500 470.000
20.81000 738.000
20.85500 1435.000
20.90000 3379.000
20.94500 4525.000
20.99000 1350.000
21.03500 554.000
21.08000 436.000
21.12500 399.000
21.17000 401.000
21.21500 345.000
21.26000 373.000
21.30500 379.000
21.35000 332.000
21.39500 351.000
21.44000 375.000
21.48500 339.000
21.53000 345.000
21.57500 350.000
21.62000 344.000
21.66500 361.000
21.71000 381.000
21.75500 351.000
21.80000 342.000
21.84500 354.000
21.89000 355.000
21.93500 360.000
21.98000 363.000
22.02500 346.000
22.07000 334.000
22.11500 349.000
22.16000 386.000
22.20500 358.000
22.25000 351.000
22.29500 342.000
22.34000 316.000
22.38500 366.000
22.43000 362.000
22.47500 356.000
22.52000 335.000
22.56500 355.000
22.61000 360.000
22.65500 378.000
22.70000 379.000
22.74500 324.000
22.79000 362.000
22.83500 366.000
22.88000 350.000
22.92500 354.000
22.97000 367.000
23.01500 357.000
23.06000 344.000
23.10500 332.000
23.15000 369.000
23.19500 359.000
23.24000 364.000
23.28500 373.000
23.33000 359.000
23.37500 359.000
23.42000 377.000
23.46500 326.000
23.51000 356.000
23.55500 367.000
23.60000 348.000
23.64500 373.000
23.69000 361.000
23.73500 371.000
23.78000 373.000
23.82500 367.000
23.87000 358.000
23.91500 415.000
23.96000 390.000
24.00500 377.000
24.05000 437.000
24.09500 607.000
24.14000 963.000
24.18500 2039.000
24.23000 2603.000
24.27500 1014.000
24.32000 608.000
24.36500 543.000
24.41000 559.000
24.45500 574.000
24.50000 558.000
24.54500 506.000
24.59000 492.000
24.63500 440.000
24.68000 442.000
24.72500 427.000
24.77000 453.000
24.81500 461.000
24.86000 441.000
24.90500 462.000
24.95000 449.000
24.99500 504.000
25.04000 525.000
25.08500 611.000
25.13000 872.000
25.17500 1203.000
25.22000 1246.000
25.26500 886.000
25.31000 675.000
25.35500 542.000
25.40000 547.000
25.44500 517.000
25.49000 486.000
25.53500 474.000
25.58000 468.000
25.62500 483.000
25.67000 443.000
25.71500 487.000
25.76000 456.000
25.80500 442.000
25.85000 462.000
25.89500 480.000
25.94000 471.000
25.98500 462.000
26.03000 463.000
26.07500 472.000
26.12000 457.000
26.16500 441.000
26.21000 455.000
26.25500 480.000
26.30000 488.000
26.34500 528.000
26.39000 474.000
26.43500 525.000
26.48000 480.000
26.52500 528.000
26.57000 557.000
26.61500 552.000
26.66000 600.000
26.70500 588.000
26.75000 635.000
26.79500 645.000
26.84000 667.000
26.88500 686.000
26.93000 735.000
26.97500 707.000
27.02000 727.000
27.06500 704.000
27.11000 747.000
27.15500 716.000
27.20000 690.000
27.24500 696.000
27.29000 698.000
27.33500 699.000
27.38000 707.000
27.42500 675.000
27.47000 691.000
27.51500 721.000
27.56000 708.000
27.60500 716.000
27.65000 768.000
27.69500 776.000
27.74000 916.000
27.78500 1010.000
27.83000 1208.000
27.87500 1596.000
27.92000 2140.000
27.96500 2770.000
28.01000 3282.000
28.05500 2795.000
28.10000 2198.000
28.14500 1510.000
28.19000 1126.000
28.23500 954.000
28.28000 852.000
28.32500 754.000
28.37000 656.000
28.41500 606.000
28.46000 596.000
28.50500 560.000
28.55000 533.000
28.59500 521.000
28.64000 493.000
28.68500 484.000
28.73000 476.000
28.77500 527.000
28.82000 462.000
28.86500 441.000
28.91000 464.000
28.95500 431.000
29.00000 427.000
29.04500 439.000
29.09000 430.000
29.13500 415.000
29.18000 387.000
29.22500 425.000
29.27000 403.000
29.31500 413.000
29.36000 415.000
29.40500 406.000
29.45000 378.000
29.49500 420.000
29.54000 385.000
29.58500 382.000
29.63000 358.000
29.67500 360.000
29.72000 370.000
29.76500 348.000
29.81000 337.000
29.85500 367.000
29.90000 364.000
29.94500 351.000
29.99000 363.000
30.03500 361.000
30.08000 366.000
30.12500 352.000
30.17000 357.000
30.21500 342.000
30.26000 331.000
30.30500 334.000
30.35000 302.000
30.39500 306.000
30.44000 312.000
30.48500 316.000
30.53000 326.000
30.57500 289.000
30.62000 325.000
30.66500 312.000
30.71000 305.000
30.75500 320.000
30.80000 328.000
30.84500 312.000
30.89000 290.000
30.93500 305.000
30.98000 312.000
31.02500 288.000
31.07000 296.000
31.11500 284.000
31.16000 301.000
31.20500 285.000
31.25000 312.000
31.29500 273.000
31.34000 279.000
31.38500 316.000
31.43000 294.000
31.47500 283.000
31.52000 308.000
31.56500 279.000
31.61000 302.000
31.65500 292.000
31.70000 281.000
31.74500 299.000
31.79000 281.000
31.83500 286.000
31.88000 287.000
31.92500 306.000
31.97000 310.000
32.01500 331.000
32.06000 434.000
32.10500 654.000
32.15000 1263.000
32.19500 2768.000
32.24000 2713.000
32.28500 1002.000
32.33000 461.000
32.37500 396.000
32.42000 342.000
32.46500 306.000
32.51000 322.000
32.55500 326.000
32.60000 316.000
32.64500 326.000
32.69000 325.000
32.73500 344.000
32.78000 391.000
32.82500 441.000
32.87000 483.000
32.91500 552.000
32.96000 598.000
33.00500 591.000
33.05000 524.000
33.09500 454.000
33.14000 416.000
33.18500 325.000
33.23000 330.000
33.27500 300.000
33.32000 286.000
33.36500 261.000
33.41000 283.000
33.45500 280.000
33.50000 277.000
33.54500 253.000
33.59000 266.000
33.63500 287.000
33.68000 270.000
33.72500 275.000
33.77000 276.000
33.81500 255.000
33.86000 242.000
33.90500 255.000
33.95000 245.000
33.99500 253.000
34.04000 238.000
34.08500 257.000
34.13000 244.000
34.17500 245.000
34.22000 249.000
34.26500 239.000
34.31000 250.000
34.35500 265.000
34.40000 253.000
34.44500 264.000
34.49000 249.000
34.53500 277.000
34.58000 274.000
34.62500 284.000
34.67000 293.000
34.71500 286.000
34.76000 281.000
34.80500 291.000
34.85000 277.000
34.89500 302.000
34.94000 305.000
34.98500 334.000
35.03000 346.000
35.07500 428.000
35.12000 445.000
35.16500 518.000
35.21000 548.000
35.25500 545.000
35.30000 500.000
35.34500 440.000
35.39000 360.000
35.43500 339.000
35.48000 323.000
35.52500 281.000
35.57000 272.000
35.61500 258.000
35.66000 263.000
35.70500 218.000
35.75000 216.000
35.79500 232.000
35.84000 223.000
35.88500 224.000
35.93000 208.000
35.97500 209.000
36.02000 228.000
36.06500 194.000
36.11000 210.000
36.15500 222.000
36.20000 216.000
36.24500 227.000
36.29000 216.000
36.33500 211.000
36.38000 202.000
36.42500 218.000
36.47000 209.000
36.51500 217.000
36.56000 247.000
36.60500 319.000
36.65000 487.000
36.69500 480.000
36.74000 313.000
36.78500 207.000
36.83000 209.000
36.87500 214.000
36.92000 195.000
36.96500 191.000
37.01000 212.000
37.05500 192.000
37.10000 223.000
37.14500 191.000
37.19000 189.000
37.23500 193.000
37.28000 181.000
37.32500 180.000
37.37000 183.000
37.41500 192.000
37.46000 209.000
37.50500 182.000
37.55000 183.000
37.59500 175.000
37.64000 204.000
37.68500 177.000
37.73000 211.000
37.77500 176.000
37.82000 195.000
37.86500 194.000
37.91000 180.000
37.95500 187.000
38.00000 177.000
38.04500 186.000
38.09000 197.000
38.13500 216.000
38.18000 177.000
38.22500 189.000
38.27000 211.000
38.31500 176.000
38.36000 181.000
38.40500 182.000
38.45000 195.000
38.49500 181.000
38.54000 189.000
38.58500 186.000
38.63000 185.000
38.67500 184.000
38.72000 196.000
38.76500 169.000
38.81000 179.000
38.85500 184.000
38.90000 185.000
38.94500 175.000
38.99000 187.000
39.03500 177.000
39.08000 184.000
39.12500 188.000
39.17000 193.000
39.21500 182.000
39.26000 177.000
39.30500 171.000
39.35000 196.000
39.39500 173.000
39.44000 178.000
39.48500 187.000
39.53000 192.000
39.57500 187.000
39.62000 190.000
39.66500 177.000
39.71000 204.000
39.75500 194.000
39.80000 192.000
39.84500 179.000
39.89000 189.000
39.93500 185.000
39.98000 178.000
40.02500 190.000
40.07000 174.000
40.11500 188.000
40.16000 191.000
40.20500 165.000
40.25000 188.000
40.29500 173.000
40.34000 186.000
40.38500 175.000
40.43000 198.000
40.47500 153.000
40.52000 170.000
40.56500 200.000
40.61000 186.000
40.65500 166.000
40.70000 196.000
40.74500 195.000
40.79000 216.000
40.83500 192.000
40.88000 210.000
40.92500 203.000
40.97000 208.000
41.01500 262.000
41.06000 244.000
41.10500 265.000
41.15000 284.000
41.19500 329.000
41.24000 348.000
41.28500 390.000
41.33000 440.000
41.37500 375.000
41.42000 339.000
41.46500 304.000
41.51000 268.000
41.55500 256.000
41.60000 205.000
41.64500 210.000
41.69000 217.000
41.73500 200.000
41.78000 199.000
41.82500 193.000
41.87000 207.000
41.91500 188.000
41.96000 196.000
42.00500 171.000
42.05000 184.000
42.09500 181.000
42.14000 183.000
42.18500 199.000
42.23000 177.000
42.27500 185.000
42.32000 175.000
42.36500 196.000
42.41000 196.000
42.45500 199.000
42.50000 200.000
42.54500 229.000
42.59000 219.000
42.63500 234.000
42.68000 208.000
42.72500 181.000
42.77000 185.000
42.81500 194.000
42.86000 209.000
42.90500 188.000
42.95000 213.000
42.99500 181.000
43.04000 177.000
43.08500 183.000
43.13000 192.000
43.17500 172.000
43.22000 185.000
43.26500 192.000
43.31000 201.000
43.35500 177.000
43.40000 195.000
43.44500 202.000
43.49000 176.000
43.53500 193.000
43.58000 194.000
43.62500 178.000
43.67000 195.000
43.71500 213.000
43.76000 197.000
43.80500 220.000
43.85000 173.000
43.89500 180.000
43.94000 200.000
43.98500 200.000
44.03000 190.000
44.07500 215.000
44.12000 218.000
44.16500 208.000
44.21000 214.000
44.25500 246.000
44.30000 310.000
44.34500 436.000
44.39000 754.000
44.43500 929.000
44.48000 609.000
44.52500 453.000
44.57000 379.000
44.61500 345.000
44.66000 309.000
44.70500 314.000
44.75000 289.000
44.79500 310.000
44.84000 306.000
44.88500 330.000
44.93000 373.000
44.97500 383.000
45.02000 369.000
45.06500 386.000
45.11000 319.000
45.15500 315.000
45.20000 252.000
45.24500 258.000
45.29000 266.000
45.33500 215.000
45.38000 201.000
45.42500 202.000
45.47000 188.000
45.51500 197.000
45.56000 182.000
45.60500 198.000
45.65000 184.000
45.69500 211.000
45.74000 174.000
45.78500 185.000
45.83000 174.000
45.87500 172.000
45.92000 187.000
45.96500 172.000
46.01000 172.000
46.05500 180.000
46.10000 192.000
46.14500 202.000
46.19000 181.000
46.23500 209.000
46.28000 249.000
46.32500 265.000
46.37000 265.000
46.41500 229.000
46.46000 206.000
46.50500 202.000
46.55000 203.000
46.59500 163.000
46.64000 174.000
46.68500 181.000
46.73000 178.000
46.77500 179.000
46.82000 173.000
46.86500 164.000
46.91000 174.000
46.95500 155.000
47.00000 145.000
47.04500 166.000
47.09000 158.000
47.13500 176.000
47.18000 164.000
47.22500 169.000
47.27000 151.000
47.31500 169.000
47.36000 177.000
47.40500 166.000
47.45000 170.000
47.49500 172.000
47.54000 166.000
47.58500 158.000
47.63000 180.000
47.67500 143.000
47.72000 159.000
47.76500 156.000
47.81000 155.000
47.85500 150.000
47.90000 171.000
47.94500 171.000
47.99000 156.000
48.03500 147.000
48.08000 149.000
48.12500 169.000
48.17000 182.000
48.21500 166.000
48.26000 155.000
48.30500 154.000
48.35000 171.000
48.39500 167.000
48.44000 162.000
48.48500 177.000
48.53000 156.000
48.57500 161.000
48.62000 162.000
48.66500 154.000
48.71000 154.000
48.75500 172.000
48.80000 177.000
48.84500 142.000
48.89000 178.000
48.93500 154.000
48.98000 177.000
49.02500 192.000
49.07000 188.000
49.11500 166.000
49.16000 177.000
49.20500 170.000
49.25000 171.000
49.29500 160.000
49.34000 181.000
49.38500 191.000
49.43000 190.000
49.47500 213.000
49.52000 270.000
49.56500 343.000
49.61000 408.000
49.65500 314.000
49.70000 233.000
49.74500 246.000
49.79000 237.000
49.83500 279.000
49.88000 261.000
49.92500 321.000
49.97000 393.000
50.01500 475.000
50.06000 492.000
50.10500 505.000
50.15000 557.000
50.19500 524.000
50.24000 457.000
50.28500 354.000
50.33000 346.000
50.37500 288.000
50.42000 260.000
50.46500 248.000
50.51000 244.000
50.55500 237.000
50.60000 215.000
50.64500 183.000
50.69000 195.000
50.73500 201.000
50.78000 189.000
50.82500 195.000
50.87000 211.000
50.91500 186.000
50.96000 204.000
51.00500 186.000
51.05000 172.000
51.09500 190.000
51.14000 201.000
51.18500 192.000
51.23000 195.000
51.27500 209.000
51.32000 190.000
51.36500 201.000
51.41000 205.000
51.45500 225.000
51.50000 215.000
51.54500 279.000
51.59000 305.000
51.63500 376.000
51.68000 417.000
51.72500 442.000
51.77000 409.000
51.81500 367.000
51.86000 341.000
51.90500 276.000
51.95000 249.000
51.99500 235.000
52.04000 209.000
52.08500 216.000
52.13000 180.000
52.17500 201.000
52.22000 200.000
52.26500 165.000
52.31000 184.000
52.35500 184.000
52.40000 174.000
52.44500 175.000
52.49000 188.000
52.53500 179.000
52.58000 154.000
52.62500 168.000
52.67000 149.000
52.71500 167.000
52.76000 175.000
52.80500 178.000
52.85000 174.000
52.89500 156.000
52.94000 150.000
52.98500 158.000
53.03000 168.000
53.07500 172.000
53.12000 162.000
53.16500 179.000
53.21000 169.000
53.25500 184.000
53.30000 166.000
53.34500 161.000
53.39000 179.000
53.43500 160.000
53.48000 148.000
53.52500 163.000
53.57000 153.000
53.61500 167.000
53.66000 179.000
53.70500 154.000
53.75000 159.000
53.79500 182.000
53.84000 163.000
53.88500 158.000
53.93000 152.000
53.97500 156.000
54.02000 154.000
54.06500 179.000
54.11000 179.000
54.15500 188.000
54.20000 199.000
54.24500 219.000
54.29000 311.000
54.33500 443.000
54.38000 571.000
54.42500 534.000
54.47000 348.000
54.51500 218.000
54.56000 194.000
54.60500 180.000
54.65000 194.000
54.69500 139.000
54.74000 168.000
54.78500 169.000
54.83000 179.000
54.87500 162.000
54.92000 159.000
54.96500 171.000
55.01000 153.000
55.05500 162.000
55.10000 155.000
55.14500 158.000
55.19000 176.000
55.23500 180.000
55.28000 155.000
55.32500 166.000
55.37000 149.000
55.41500 149.000
55.46000 151.000
55.50500 162.000
55.55000 176.000
55.59500 164.000
55.64000 164.000
55.68500 164.000
55.73000 178.000
55.77500 169.000
55.82000 178.000
55.86500 193.000
55.91000 187.000
55.95500 204.000
56.00000 171.000
56.04500 191.000
56.09000 199.000
56.13500 195.000
56.18000 215.000
56.22500 228.000
56.27000 240.000
56.31500 278.000
56.36000 274.000
56.40500 259.000
56.45000 256.000
56.49500 255.000
56.54000 240.000
56.58500 220.000
56.63000 196.000
56.67500 187.000
56.72000 198.000
56.76500 203.000
56.81000 170.000
56.85500 174.000
56.90000 169.000
56.94500 160.000
56.99000 188.000
57.03500 165.000
57.08000 165.000
57.12500 181.000
57.17000 187.000
57.21500 174.000
57.26000 178.000
57.30500 184.000
57.35000 205.000
57.39500 249.000
57.44000 289.000
57.48500 265.000
57.53000 210.000
57.57500 199.000
57.62000 166.000
57.66500 170.000
57.71000 192.000
57.75500 202.000
57.80000 209.000
57.84500 178.000
57.89000 200.000
57.93500 210.000
57.98000 199.000
58.02500 193.000
58.07000 183.000
58.11500 169.000
58.16000 158.000
58.20500 172.000
58.25000 172.000
58.29500 171.000
58.34000 170.000
58.38500 157.000
58.43000 154.000
58.47500 147.000
58.52000 172.000
58.56500 151.000
58.61000 187.000
58.65500 167.000
58.70000 150.000
58.74500 146.000
58.79000 145.000
58.83500 156.000
58.88000 157.000
58.92500 180.000
58.97000 145.000
59.01500 161.000
59.06000 157.000
59.10500 153.000
59.15000 157.000
59.19500 151.000
59.24000 162.000
59.28500 140.000
59.33000 154.000
59.37500 146.000
59.42000 166.000
59.46500 153.000
59.51000 133.000
59.55500 158.000
59.60000 146.000
59.64500 141.000
59.69000 156.000
59.73500 156.000
59.78000 145.000
59.82500 152.000
59.87000 149.000
59.91500 167.000
59.96000 159.000
60.00500 144.000
60.05000 182.000
60.09500 146.000
60.14000 141.000
60.18500 146.000
60.23000 169.000
60.27500 152.000
60.32000 153.000
60.36500 153.000
60.41000 137.000
60.45500 158.000
60.50000 153.000
60.54500 156.000
60.59000 164.000
60.63500 165.000
60.68000 167.000
60.72500 166.000
60.77000 158.000
60.81500 170.000
60.86000 170.000
60.90500 162.000
60.95000 145.000
60.99500 171.000
61.04000 159.000
61.08500 162.000
61.13000 143.000
61.17500 160.000
61.22000 166.000
61.26500 137.000
61.31000 153.000
61.35500 144.000
61.40000 132.000
61.44500 141.000
61.49000 161.000
61.53500 140.000
61.58000 141.000
61.62500 168.000
61.67000 148.000
61.71500 152.000
61.76000 178.000
61.80500 149.000
61.85000 176.000
61.89500 169.000
61.94000 174.000
61.98500 180.000