File: ISoD/xrd_data/HSC005III_range_2.xy
2.00000 360.000
2.04500 373.000
2.09000 354.000
2.13500 336.000
2.18000 311.000
2.22500 294.000
2.27000 269.000
2.31500 280.000
2.36000 251.000
2.40500 267.000
2.45000 248.000
2.49500 237.000
2.54000 233.000
2.58500 228.000
2.63000 219.000
2.67500 216.000
2.72000 227.000
2.76500 212.000
2.81000 200.000
2.85500 209.000
2.90000 236.000
2.94500 194.000
2.99000 197.000
3.03500 205.000
3.08000 183.000
3.12500 183.000
3.17000 189.000
3.21500 199.000
3.26000 187.000
3.30500 188.000
3.35000 193.000
3.39500 177.000
3.44000 176.000
3.48500 173.000
3.53000 176.000
3.57500 187.000
3.62000 167.000
3.66500 181.000
3.71000 194.000
3.75500 171.000
3.80000 160.000
3.84500 187.000
3.89000 175.000
3.93500 183.000
3.98000 176.000
4.02500 190.000
4.07000 164.000
4.11500 166.000
4.16000 173.000
4.20500 172.000
4.25000 173.000
4.29500 178.000
4.34000 188.000
4.38500 175.000
4.43000 177.000
4.47500 174.000
4.52000 165.000
4.56500 178.000
4.61000 177.000
4.65500 181.000
4.70000 180.000
4.74500 191.000
4.79000 177.000
4.83500 159.000
4.88000 184.000
4.92500 156.000
4.97000 185.000
5.01500 170.000
5.06000 172.000
5.10500 166.000
5.15000 191.000
5.19500 161.000
5.24000 177.000
5.28500 187.000
5.33000 169.000
5.37500 182.000
5.42000 157.000
5.46500 171.000
5.51000 178.000
5.55500 178.000
5.60000 188.000
5.64500 180.000
5.69000 168.000
5.73500 163.000
5.78000 193.000
5.82500 163.000
5.87000 189.000
5.91500 183.000
5.96000 184.000
6.00500 187.000
6.05000 171.000
6.09500 167.000
6.14000 163.000
6.18500 166.000
6.23000 171.000
6.27500 161.000
6.32000 179.000
6.36500 178.000
6.41000 177.000
6.45500 176.000
6.50000 192.000
6.54500 170.000
6.59000 171.000
6.63500 164.000
6.68000 163.000
6.72500 199.000
6.77000 162.000
6.81500 161.000
6.86000 177.000
6.90500 169.000
6.95000 174.000
6.99500 173.000
7.04000 156.000
7.08500 205.000
7.13000 144.000
7.17500 161.000
7.22000 158.000
7.26500 179.000
7.31000 172.000
7.35500 160.000
7.40000 159.000
7.44500 157.000
7.49000 171.000
7.53500 168.000
7.58000 180.000
7.62500 184.000
7.67000 184.000
7.71500 166.000
7.76000 177.000
7.80500 169.000
7.85000 165.000
7.89500 176.000
7.94000 171.000
7.98500 174.000
8.03000 177.000
8.07500 167.000
8.12000 159.000
8.16500 186.000
8.21000 174.000
8.25500 167.000
8.30000 166.000
8.34500 178.000
8.39000 178.000
8.43500 167.000
8.48000 174.000
8.52500 159.000
8.57000 169.000
8.61500 168.000
8.66000 167.000
8.70500 156.000
8.75000 153.000
8.79500 163.000
8.84000 169.000
8.88500 178.000
8.93000 167.000
8.97500 163.000
9.02000 159.000
9.06500 158.000
9.11000 168.000
9.15500 167.000
9.20000 172.000
9.24500 184.000
9.29000 159.000
9.33500 170.000
9.38000 159.000
9.42500 170.000
9.47000 162.000
9.51500 161.000
9.56000 159.000
9.60500 171.000
9.65000 171.000
9.69500 174.000
9.74000 171.000
9.78500 167.000
9.83000 168.000
9.87500 168.000
9.92000 175.000
9.96500 166.000
10.01000 163.000
10.05500 151.000
10.10000 179.000
10.14500 162.000
10.19000 175.000
10.23500 182.000
10.28000 156.000
10.32500 193.000
10.37000 180.000
10.41500 155.000
10.46000 169.000
10.50500 162.000
10.55000 166.000
10.59500 167.000
10.64000 168.000
10.68500 161.000
10.73000 149.000
10.77500 172.000
10.82000 167.000
10.86500 177.000
10.91000 176.000
10.95500 166.000
11.00000 187.000
11.04500 166.000
11.09000 183.000
11.13500 198.000
11.18000 169.000
11.22500 199.000
11.27000 164.000
11.31500 155.000
11.36000 169.000
11.40500 180.000
11.45000 173.000
11.49500 168.000
11.54000 179.000
11.58500 173.000
11.63000 174.000
11.67500 198.000
11.72000 188.000
11.76500 234.000
11.81000 222.000
11.85500 325.000
11.90000 482.000
11.94500 823.000
11.99000 1444.000
12.03500 1142.000
12.08000 947.000
12.12500 678.000
12.17000 340.000
12.21500 238.000
12.26000 233.000
12.30500 242.000
12.35000 228.000
12.39500 204.000
12.44000 221.000
12.48500 203.000
12.53000 209.000
12.57500 213.000
12.62000 195.000
12.66500 196.000
12.71000 190.000
12.75500 206.000
12.80000 205.000
12.84500 198.000
12.89000 197.000
12.93500 198.000
12.98000 198.000
13.02500 176.000
13.07000 193.000
13.11500 211.000
13.16000 187.000
13.20500 171.000
13.25000 180.000
13.29500 176.000
13.34000 179.000
13.38500 196.000
13.43000 197.000
13.47500 182.000
13.52000 184.000
13.56500 170.000
13.61000 165.000
13.65500 165.000
13.70000 187.000
13.74500 187.000
13.79000 177.000
13.83500 177.000
13.88000 158.000
13.92500 188.000
13.97000 164.000
14.01500 167.000
14.06000 157.000
14.10500 162.000
14.15000 192.000
14.19500 177.000
14.24000 193.000
14.28500 170.000
14.33000 185.000
14.37500 174.000
14.42000 195.000
14.46500 175.000
14.51000 186.000
14.55500 170.000
14.60000 196.000
14.64500 170.000
14.69000 174.000
14.73500 185.000
14.78000 184.000
14.82500 175.000
14.87000 163.000
14.91500 198.000
14.96000 155.000
15.00500 173.000
15.05000 172.000
15.09500 161.000
15.14000 182.000
15.18500 185.000
15.23000 208.000
15.27500 167.000
15.32000 176.000
15.36500 178.000
15.41000 168.000
15.45500 197.000
15.50000 179.000
15.54500 172.000
15.59000 164.000
15.63500 171.000
15.68000 162.000
15.72500 196.000
15.77000 186.000
15.81500 172.000
15.86000 207.000
15.90500 197.000
15.95000 180.000
15.99500 188.000
16.04000 194.000
16.08500 221.000
16.13000 164.000
16.17500 197.000
16.22000 202.000
16.26500 174.000
16.31000 190.000
16.35500 204.000
16.40000 211.000
16.44500 191.000
16.49000 203.000
16.53500 189.000
16.58000 191.000
16.62500 203.000
16.67000 200.000
16.71500 186.000
16.76000 213.000
16.80500 183.000
16.85000 190.000
16.89500 200.000
16.94000 215.000
16.98500 198.000
17.03000 193.000
17.07500 191.000
17.12000 200.000
17.16500 215.000
17.21000 189.000
17.25500 216.000
17.30000 204.000
17.34500 220.000
17.39000 197.000
17.43500 238.000
17.48000 220.000
17.52500 193.000
17.57000 216.000
17.61500 224.000
17.66000 230.000
17.70500 218.000
17.75000 247.000
17.79500 282.000
17.84000 279.000
17.88500 326.000
17.93000 309.000
17.97500 304.000
18.02000 317.000
18.06500 328.000
18.11000 301.000
18.15500 280.000
18.20000 265.000
18.24500 247.000
18.29000 262.000
18.33500 258.000
18.38000 241.000
18.42500 227.000
18.47000 225.000
18.51500 228.000
18.56000 207.000
18.60500 229.000
18.65000 235.000
18.69500 207.000
18.74000 227.000
18.78500 217.000
18.83000 208.000
18.87500 238.000
18.92000 234.000
18.96500 217.000
19.01000 215.000
19.05500 202.000
19.10000 218.000
19.14500 199.000
19.19000 225.000
19.23500 213.000
19.28000 227.000
19.32500 203.000
19.37000 212.000
19.41500 220.000
19.46000 215.000
19.50500 239.000
19.55000 233.000
19.59500 209.000
19.64000 219.000
19.68500 210.000
19.73000 225.000
19.77500 230.000
19.82000 234.000
19.86500 211.000
19.91000 240.000
19.95500 234.000
20.00000 233.000
20.04500 244.000
20.09000 243.000
20.13500 232.000
20.18000 231.000
20.22500 224.000
20.27000 223.000
20.31500 238.000
20.36000 237.000
20.40500 242.000
20.45000 250.000
20.49500 243.000
20.54000 258.000
20.58500 274.000
20.63000 251.000
20.67500 285.000
20.72000 351.000
20.76500 455.000
20.81000 508.000
20.85500 519.000
20.90000 473.000
20.94500 391.000
20.99000 365.000
21.03500 308.000
21.08000 289.000
21.12500 288.000
21.17000 294.000
21.21500 252.000
21.26000 250.000
21.30500 250.000
21.35000 233.000
21.39500 258.000
21.44000 262.000
21.48500 254.000
21.53000 257.000
21.57500 267.000
21.62000 259.000
21.66500 261.000
21.71000 263.000
21.75500 249.000
21.80000 260.000
21.84500 263.000
21.89000 289.000
21.93500 249.000
21.98000 258.000
22.02500 254.000
22.07000 240.000
22.11500 257.000
22.16000 247.000
22.20500 271.000
22.25000 254.000
22.29500 277.000
22.34000 300.000
22.38500 269.000
22.43000 236.000
22.47500 282.000
22.52000 250.000
22.56500 292.000
22.61000 248.000
22.65500 254.000
22.70000 273.000
22.74500 286.000
22.79000 263.000
22.83500 261.000
22.88000 272.000
22.92500 257.000
22.97000 260.000
23.01500 290.000
23.06000 266.000
23.10500 282.000
23.15000 274.000
23.19500 265.000
23.24000 264.000
23.28500 287.000
23.33000 239.000
23.37500 271.000
23.42000 266.000
23.46500 291.000
23.51000 280.000
23.55500 290.000
23.60000 290.000
23.64500 254.000
23.69000 283.000
23.73500 280.000
23.78000 244.000
23.82500 295.000
23.87000 314.000
23.91500 310.000
23.96000 276.000
24.00500 310.000
24.05000 308.000
24.09500 286.000
24.14000 354.000
24.18500 382.000
24.23000 371.000
24.27500 402.000
24.32000 383.000
24.36500 338.000
24.41000 323.000
24.45500 310.000
24.50000 292.000
24.54500 331.000
24.59000 331.000
24.63500 349.000
24.68000 385.000
24.72500 401.000
24.77000 432.000
24.81500 481.000
24.86000 446.000
24.90500 474.000
24.95000 503.000
24.99500 445.000
25.04000 453.000
25.08500 386.000
25.13000 397.000
25.17500 378.000
25.22000 336.000
25.26500 330.000
25.31000 303.000
25.35500 326.000
25.40000 323.000
25.44500 313.000
25.49000 332.000
25.53500 287.000
25.58000 301.000
25.62500 291.000
25.67000 319.000
25.71500 288.000
25.76000 299.000
25.80500 315.000
25.85000 289.000
25.89500 307.000
25.94000 298.000
25.98500 328.000
26.03000 338.000
26.07500 311.000
26.12000 329.000
26.16500 318.000
26.21000 327.000
26.25500 316.000
26.30000 356.000
26.34500 340.000
26.39000 366.000
26.43500 342.000
26.48000 339.000
26.52500 386.000
26.57000 392.000
26.61500 417.000
26.66000 420.000
26.70500 438.000
26.75000 478.000
26.79500 509.000
26.84000 560.000
26.88500 670.000
26.93000 720.000
26.97500 869.000
27.02000 918.000
27.06500 882.000
27.11000 842.000
27.15500 725.000
27.20000 696.000
27.24500 684.000
27.29000 622.000
27.33500 655.000
27.38000 660.000
27.42500 660.000
27.47000 719.000
27.51500 770.000
27.56000 806.000
27.60500 862.000
27.65000 962.000
27.69500 1011.000
27.74000 988.000
27.78500 931.000
27.83000 821.000
27.87500 756.000
27.92000 660.000
27.96500 571.000
28.01000 562.000
28.05500 511.000
28.10000 482.000
28.14500 440.000
28.19000 390.000
28.23500 376.000
28.28000 391.000
28.32500 357.000
28.37000 332.000
28.41500 334.000
28.46000 320.000
28.50500 330.000
28.55000 330.000
28.59500 325.000
28.64000 292.000
28.68500 316.000
28.73000 312.000
28.77500 304.000
28.82000 274.000
28.86500 272.000
28.91000 323.000
28.95500 319.000
29.00000 324.000
29.04500 287.000
29.09000 300.000
29.13500 299.000
29.18000 310.000
29.22500 341.000
29.27000 335.000
29.31500 337.000
29.36000 354.000
29.40500 339.000
29.45000 384.000
29.49500 394.000
29.54000 380.000
29.58500 392.000
29.63000 397.000
29.67500 396.000
29.72000 388.000
29.76500 417.000
29.81000 366.000
29.85500 341.000
29.90000 342.000
29.94500 292.000
29.99000 275.000
30.03500 274.000
30.08000 255.000
30.12500 271.000
30.17000 247.000
30.21500 262.000
30.26000 216.000
30.30500 227.000
30.35000 228.000
30.39500 223.000
30.44000 246.000
30.48500 222.000
30.53000 236.000
30.57500 208.000
30.62000 216.000
30.66500 209.000
30.71000 209.000
30.75500 207.000
30.80000 203.000
30.84500 215.000
30.89000 208.000
30.93500 200.000
30.98000 217.000
31.02500 200.000
31.07000 213.000
31.11500 214.000
31.16000 227.000
31.20500 209.000
31.25000 213.000
31.29500 206.000
31.34000 213.000
31.38500 212.000
31.43000 208.000
31.47500 197.000
31.52000 187.000
31.56500 200.000
31.61000 214.000
31.65500 192.000
31.70000 190.000
31.74500 197.000
31.79000 203.000
31.83500 202.000
31.88000 208.000
31.92500 257.000
31.97000 311.000
32.01500 336.000
32.06000 314.000
32.10500 310.000
32.15000 319.000
32.19500 349.000
32.24000 331.000
32.28500 325.000
32.33000 329.000
32.37500 279.000
32.42000 215.000
32.46500 222.000
32.51000 210.000
32.55500 205.000
32.60000 208.000
32.64500 178.000
32.69000 192.000
32.73500 176.000
32.78000 177.000
32.82500 187.000
32.87000 189.000
32.91500 197.000
32.96000 181.000
33.00500 181.000
33.05000 191.000
33.09500 193.000
33.14000 176.000
33.18500 184.000
33.23000 186.000
33.27500 200.000
33.32000 172.000
33.36500 157.000
33.41000 163.000
33.45500 164.000
33.50000 168.000
33.54500 172.000
33.59000 163.000
33.63500 164.000
33.68000 165.000
33.72500 163.000
33.77000 186.000
33.81500 173.000
33.86000 167.000
33.90500 158.000
33.95000 159.000
33.99500 172.000
34.04000 164.000
34.08500 154.000
34.13000 158.000
34.17500 164.000
34.22000 170.000
34.26500 160.000
34.31000 174.000
34.35500 186.000
34.40000 189.000
34.44500 173.000
34.49000 188.000
34.53500 173.000
34.58000 173.000
34.62500 170.000
34.67000 196.000
34.71500 163.000
34.76000 193.000
34.80500 182.000
34.85000 181.000
34.89500 218.000
34.94000 184.000
34.98500 205.000
35.03000 214.000
35.07500 181.000
35.12000 195.000
35.16500 200.000
35.21000 191.000
35.25500 177.000
35.30000 160.000
35.34500 173.000
35.39000 160.000
35.43500 160.000
35.48000 143.000
35.52500 143.000
35.57000 147.000
35.61500 132.000
35.66000 155.000
35.70500 153.000
35.75000 152.000
35.79500 145.000
35.84000 148.000
35.88500 152.000
35.93000 147.000
35.97500 153.000
36.02000 139.000
36.06500 151.000
36.11000 159.000
36.15500 139.000
36.20000 156.000
36.24500 141.000
36.29000 148.000
36.33500 133.000
36.38000 141.000
36.42500 140.000
36.47000 149.000
36.51500 178.000
36.56000 151.000
36.60500 132.000
36.65000 157.000
36.69500 147.000
36.74000 146.000
36.78500 150.000
36.83000 134.000
36.87500 139.000
36.92000 137.000
36.96500 152.000
37.01000 144.000
37.05500 134.000
37.10000 136.000
37.14500 149.000
37.19000 128.000
37.23500 123.000
37.28000 124.000
37.32500 136.000
37.37000 125.000
37.41500 117.000
37.46000 115.000
37.50500 129.000
37.55000 146.000
37.59500 135.000
37.64000 123.000
37.68500 118.000
37.73000 138.000
37.77500 139.000
37.82000 123.000
37.86500 140.000
37.91000 119.000
37.95500 124.000
38.00000 128.000
38.04500 125.000
38.09000 141.000
38.13500 123.000
38.18000 134.000
38.22500 136.000
38.27000 128.000
38.31500 141.000
38.36000 131.000
38.40500 127.000
38.45000 136.000
38.49500 135.000
38.54000 114.000
38.58500 123.000
38.63000 115.000
38.67500 134.000
38.72000 131.000
38.76500 118.000
38.81000 114.000
38.85500 129.000
38.90000 128.000
38.94500 141.000
38.99000 134.000
39.03500 155.000
39.08000 135.000
39.12500 125.000
39.17000 113.000
39.21500 127.000
39.26000 124.000
39.30500 140.000
39.35000 143.000
39.39500 130.000
39.44000 151.000
39.48500 134.000
39.53000 137.000
39.57500 146.000
39.62000 145.000
39.66500 148.000
39.71000 167.000
39.75500 180.000
39.80000 167.000
39.84500 144.000
39.89000 144.000
39.93500 141.000
39.98000 140.000
40.02500 144.000
40.07000 130.000
40.11500 132.000
40.16000 135.000
40.20500 125.000
40.25000 136.000
40.29500 135.000
40.34000 118.000
40.38500 136.000
40.43000 124.000
40.47500 104.000
40.52000 117.000
40.56500 111.000
40.61000 130.000
40.65500 112.000
40.70000 123.000
40.74500 128.000
40.79000 105.000
40.83500 118.000
40.88000 133.000
40.92500 114.000
40.97000 119.000
41.01500 117.000
41.06000 124.000
41.10500 126.000
41.15000 124.000
41.19500 130.000
41.24000 122.000
41.28500 131.000
41.33000 127.000
41.37500 131.000
41.42000 129.000
41.46500 120.000
41.51000 134.000
41.55500 120.000
41.60000 123.000
41.64500 133.000
41.69000 127.000
41.73500 114.000
41.78000 126.000
41.82500 138.000
41.87000 116.000
41.91500 115.000
41.96000 131.000
42.00500 131.000
42.05000 130.000
42.09500 132.000
42.14000 139.000
42.18500 140.000
42.23000 175.000
42.27500 171.000
42.32000 188.000
42.36500 131.000
42.41000 152.000
42.45500 170.000
42.50000 141.000
42.54500 160.000
42.59000 183.000
42.63500 183.000
42.68000 183.000
42.72500 153.000
42.77000 150.000
42.81500 140.000
42.86000 133.000
42.90500 146.000
42.95000 142.000
42.99500 148.000
43.04000 140.000
43.08500 146.000
43.13000 144.000
43.17500 129.000
43.22000 127.000
43.26500 126.000
43.31000 126.000
43.35500 138.000
43.40000 124.000
43.44500 126.000
43.49000 134.000
43.53500 117.000
43.58000 134.000
43.62500 121.000
43.67000 140.000
43.71500 131.000
43.76000 116.000
43.80500 136.000
43.85000 126.000
43.89500 150.000
43.94000 131.000
43.98500 144.000
44.03000 130.000
44.07500 141.000
44.12000 164.000
44.16500 160.000
44.21000 162.000
44.25500 175.000
44.30000 202.000
44.34500 216.000
44.39000 215.000
44.43500 198.000
44.48000 194.000
44.52500 205.000
44.57000 204.000
44.61500 216.000
44.66000 212.000
44.70500 234.000
44.75000 203.000
44.79500 225.000
44.84000 230.000
44.88500 221.000
44.93000 229.000
44.97500 221.000
45.02000 224.000
45.06500 188.000
45.11000 181.000
45.15500 168.000
45.20000 171.000
45.24500 165.000
45.29000 143.000
45.33500 140.000
45.38000 132.000
45.42500 140.000
45.47000 126.000
45.51500 126.000
45.56000 124.000
45.60500 116.000
45.65000 123.000
45.69500 108.000
45.74000 127.000
45.78500 118.000
45.83000 123.000
45.87500 127.000
45.92000 118.000
45.96500 126.000
46.01000 136.000
46.05500 128.000
46.10000 131.000
46.14500 128.000
46.19000 126.000
46.23500 123.000
46.28000 122.000
46.32500 136.000
46.37000 140.000
46.41500 131.000
46.46000 146.000
46.50500 130.000
46.55000 124.000
46.59500 128.000
46.64000 136.000
46.68500 139.000
46.73000 135.000
46.77500 138.000
46.82000 114.000
46.86500 131.000
46.91000 113.000
46.95500 131.000
47.00000 113.000
47.04500 115.000
47.09000 117.000
47.13500 121.000
47.18000 102.000
47.22500 117.000
47.27000 108.000
47.31500 116.000
47.36000 115.000
47.40500 111.000
47.45000 107.000
47.49500 114.000
47.54000 113.000
47.58500 118.000
47.63000 113.000
47.67500 111.000
47.72000 110.000
47.76500 101.000
47.81000 99.000
47.85500 97.000
47.90000 98.000
47.94500 109.000
47.99000 103.000
48.03500 105.000
48.08000 96.000
48.12500 103.000
48.17000 100.000
48.21500 98.000
48.26000 90.000
48.30500 98.000
48.35000 109.000
48.39500 106.000
48.44000 104.000
48.48500 94.000
48.53000 85.000
48.57500 103.000
48.62000 103.000
48.66500 104.000
48.71000 113.000
48.75500 124.000
48.80000 101.000
48.84500 105.000
48.89000 109.000
48.93500 100.000
48.98000 102.000
49.02500 96.000
49.07000 109.000
49.11500 89.000
49.16000 110.000
49.20500 106.000
49.25000 99.000
49.29500 102.000
49.34000 107.000
49.38500 114.000
49.43000 96.000
49.47500 115.000
49.52000 102.000
49.56500 89.000
49.61000 99.000
49.65500 115.000
49.70000 96.000
49.74500 119.000
49.79000 94.000
49.83500 92.000
49.88000 103.000
49.92500 96.000
49.97000 116.000
50.01500 109.000
50.06000 115.000
50.10500 108.000
50.15000 97.000
50.19500 108.000
50.24000 114.000
50.28500 93.000
50.33000 111.000
50.37500 111.000
50.42000 112.000
50.46500 107.000
50.51000 100.000
50.55500 119.000
50.60000 111.000
50.64500 99.000
50.69000 119.000
50.73500 104.000
50.78000 95.000
50.82500 114.000
50.87000 119.000
50.91500 100.000
50.96000 104.000
51.00500 111.000
51.05000 113.000
51.09500 111.000
51.14000 111.000
51.18500 99.000
51.23000 107.000
51.27500 99.000
51.32000 107.000
51.36500 106.000
51.41000 91.000
51.45500 114.000
51.50000 91.000
51.54500 98.000
51.59000 97.000
51.63500 102.000
51.68000 95.000
51.72500 99.000
51.77000 101.000
51.81500 110.000
51.86000 92.000
51.90500 107.000
51.95000 94.000
51.99500 100.000
52.04000 95.000
52.08500 89.000
52.13000 87.000
52.17500 100.000
52.22000 117.000
52.26500 98.000
52.31000 109.000
52.35500 100.000
52.40000 93.000
52.44500 99.000
52.49000 111.000
52.53500 89.000
52.58000 98.000
52.62500 115.000
52.67000 95.000
52.71500 106.000
52.76000 97.000
52.80500 106.000
52.85000 93.000
52.89500 104.000
52.94000 95.000
52.98500 105.000
53.03000 103.000
53.07500 97.000
53.12000 115.000
53.16500 103.000
53.21000 95.000
53.25500 99.000
53.30000 86.000
53.34500 96.000
53.39000 105.000
53.43500 100.000
53.48000 94.000
53.52500 90.000
53.57000 91.000
53.61500 102.000
53.66000 91.000
53.70500 89.000
53.75000 92.000
53.79500 89.000
53.84000 109.000
53.88500 94.000
53.93000 101.000
53.97500 111.000
54.02000 106.000
54.06500 104.000
54.11000 101.000
54.15500 101.000
54.20000 115.000
54.24500 122.000
54.29000 111.000
54.33500 100.000
54.38000 98.000
54.42500 109.000
54.47000 98.000
54.51500 111.000
54.56000 100.000
54.60500 112.000
54.65000 103.000
54.69500 105.000
54.74000 100.000
54.78500 97.000
54.83000 98.000
54.87500 104.000
54.92000 94.000
54.96500 91.000
55.01000 96.000
55.05500 100.000
55.10000 97.000
55.14500 99.000
55.19000 92.000
55.23500 99.000
55.28000 103.000
55.32500 91.000
55.37000 88.000
55.41500 99.000
55.46000 102.000
55.50500 91.000
55.55000 110.000
55.59500 103.000
55.64000 122.000
55.68500 116.000
55.73000 126.000
55.77500 120.000
55.82000 127.000
55.86500 119.000
55.91000 133.000
55.95500 119.000
56.00000 131.000
56.04500 141.000
56.09000 132.000
56.13500 125.000
56.18000 141.000
56.22500 133.000
56.27000 137.000
56.31500 153.000
56.36000 128.000
56.40500 116.000
56.45000 137.000
56.49500 131.000
56.54000 117.000
56.58500 131.000
56.63000 105.000
56.67500 115.000
56.72000 143.000
56.76500 107.000
56.81000 118.000
56.85500 115.000
56.90000 120.000
56.94500 113.000
56.99000 119.000
57.03500 115.000
57.08000 107.000
57.12500 125.000
57.17000 114.000
57.21500 127.000
57.26000 101.000
57.30500 123.000
57.35000 115.000
57.39500 111.000
57.44000 109.000
57.48500 121.000
57.53000 106.000
57.57500 108.000
57.62000 106.000
57.66500 101.000
57.71000 107.000
57.75500 104.000
57.80000 105.000
57.84500 95.000
57.89000 102.000
57.93500 98.000
57.98000 102.000
58.02500 99.000
58.07000 89.000
58.11500 106.000
58.16000 102.000
58.20500 102.000
58.25000 89.000
58.29500 85.000
58.34000 80.000
58.38500 97.000
58.43000 99.000
58.47500 98.000
58.52000 75.000
58.56500 100.000
58.61000 99.000
58.65500 93.000
58.70000 100.000
58.74500 96.000
58.79000 91.000
58.83500 92.000
58.88000 100.000
58.92500 91.000
58.97000 106.000
59.01500 97.000
59.06000 94.000
59.10500 100.000
59.15000 98.000
59.19500 85.000
59.24000 89.000
59.28500 100.000
59.33000 105.000
59.37500 78.000
59.42000 99.000
59.46500 98.000
59.51000 91.000
59.55500 79.000
59.60000 105.000
59.64500 84.000
59.69000 97.000
59.73500 100.000
59.78000 76.000
59.82500 95.000
59.87000 98.000
59.91500 91.000
59.96000 91.000
60.00500 92.000
60.05000 74.000
60.09500 86.000
60.14000 93.000
60.18500 90.000
60.23000 98.000
60.27500 98.000
60.32000 83.000
60.36500 99.000
60.41000 93.000
60.45500 91.000
60.50000 101.000
60.54500 97.000
60.59000 98.000
60.63500 109.000
60.68000 100.000
60.72500 90.000
60.77000 85.000
60.81500 86.000
60.86000 90.000
60.90500 79.000
60.95000 90.000
60.99500 77.000
61.04000 72.000
61.08500 110.000
61.13000 89.000
61.17500 86.000
61.22000 86.000
61.26500 104.000
61.31000 111.000
61.35500 98.000
61.40000 84.000
61.44500 91.000
61.49000 99.000
61.53500 86.000
61.58000 90.000
61.62500 95.000
61.67000 91.000
61.71500 101.000
61.76000 92.000
61.80500 85.000
61.85000 97.000
61.89500 92.000
61.94000 100.000
61.98500 78.000