File: ISoD/xrd_data/HSC092.xy
2.00000 6.000
2.04500 3.000
2.09000 7.000
2.13500 5.000
2.18000 1.000
2.22500 4.000
2.27000 3.000
2.31500 5.000
2.36000 2.000
2.40500 4.000
2.45000 5.000
2.49500 4.000
2.54000 6.000
2.58500 3.000
2.63000 5.000
2.67500 3.000
2.72000 5.000
2.76500 3.000
2.81000 4.000
2.85500 3.000
2.90000 6.000
2.94500 3.000
2.99000 5.000
3.03500 7.000
3.08000 11.000
3.12500 37.000
3.17000 122.000
3.21500 295.000
3.26000 454.000
3.30500 430.000
3.35000 411.000
3.39500 432.000
3.44000 413.000
3.48500 417.000
3.53000 407.000
3.57500 401.000
3.62000 404.000
3.66500 417.000
3.71000 395.000
3.75500 397.000
3.80000 399.000
3.84500 407.000
3.89000 384.000
3.93500 391.000
3.98000 358.000
4.02500 368.000
4.07000 378.000
4.11500 354.000
4.16000 359.000
4.20500 411.000
4.25000 381.000
4.29500 344.000
4.34000 382.000
4.38500 381.000
4.43000 399.000
4.47500 383.000
4.52000 362.000
4.56500 395.000
4.61000 395.000
4.65500 376.000
4.70000 363.000
4.74500 364.000
4.79000 354.000
4.83500 366.000
4.88000 364.000
4.92500 401.000
4.97000 396.000
5.01500 346.000
5.06000 364.000
5.10500 358.000
5.15000 361.000
5.19500 396.000
5.24000 362.000
5.28500 390.000
5.33000 396.000
5.37500 382.000
5.42000 403.000
5.46500 401.000
5.51000 365.000
5.55500 395.000
5.60000 399.000
5.64500 414.000
5.69000 373.000
5.73500 401.000
5.78000 387.000
5.82500 405.000
5.87000 393.000
5.91500 393.000
5.96000 404.000
6.00500 403.000
6.05000 383.000
6.09500 373.000
6.14000 393.000
6.18500 399.000
6.23000 413.000
6.27500 417.000
6.32000 401.000
6.36500 419.000
6.41000 415.000
6.45500 377.000
6.50000 428.000
6.54500 389.000
6.59000 432.000
6.63500 393.000
6.68000 412.000
6.72500 438.000
6.77000 402.000
6.81500 394.000
6.86000 390.000
6.90500 409.000
6.95000 410.000
6.99500 404.000
7.04000 406.000
7.08500 433.000
7.13000 411.000
7.17500 406.000
7.22000 423.000
7.26500 402.000
7.31000 442.000
7.35500 417.000
7.40000 429.000
7.44500 440.000
7.49000 440.000
7.53500 414.000
7.58000 412.000
7.62500 465.000
7.67000 408.000
7.71500 432.000
7.76000 429.000
7.80500 412.000
7.85000 420.000
7.89500 443.000
7.94000 441.000
7.98500 447.000
8.03000 421.000
8.07500 398.000
8.12000 421.000
8.16500 441.000
8.21000 408.000
8.25500 452.000
8.30000 435.000
8.34500 447.000
8.39000 430.000
8.43500 442.000
8.48000 434.000
8.52500 435.000
8.57000 477.000
8.61500 465.000
8.66000 445.000
8.70500 419.000
8.75000 423.000
8.79500 417.000
8.84000 452.000
8.88500 454.000
8.93000 437.000
8.97500 439.000
9.02000 456.000
9.06500 426.000
9.11000 409.000
9.15500 422.000
9.20000 450.000
9.24500 427.000
9.29000 429.000
9.33500 437.000
9.38000 422.000
9.42500 461.000
9.47000 408.000
9.51500 443.000
9.56000 439.000
9.60500 415.000
9.65000 438.000
9.69500 450.000
9.74000 448.000
9.78500 436.000
9.83000 440.000
9.87500 424.000
9.92000 442.000
9.96500 426.000
10.01000 424.000
10.05500 429.000
10.10000 465.000
10.14500 472.000
10.19000 481.000
10.23500 463.000
10.28000 429.000
10.32500 459.000
10.37000 416.000
10.41500 484.000
10.46000 458.000
10.50500 450.000
10.55000 440.000
10.59500 440.000
10.64000 454.000
10.68500 502.000
10.73000 497.000
10.77500 441.000
10.82000 462.000
10.86500 463.000
10.91000 459.000
10.95500 487.000
11.00000 513.000
11.04500 471.000
11.09000 469.000
11.13500 471.000
11.18000 493.000
11.22500 490.000
11.27000 480.000
11.31500 497.000
11.36000 467.000
11.40500 474.000
11.45000 479.000
11.49500 504.000
11.54000 495.000
11.58500 524.000
11.63000 488.000
11.67500 529.000
11.72000 512.000
11.76500 535.000
11.81000 553.000
11.85500 618.000
11.90000 655.000
11.94500 710.000
11.99000 787.000
12.03500 836.000
12.08000 876.000
12.12500 808.000
12.17000 786.000
12.21500 682.000
12.26000 595.000
12.30500 605.000
12.35000 591.000
12.39500 570.000
12.44000 558.000
12.48500 577.000
12.53000 552.000
12.57500 546.000
12.62000 613.000
12.66500 598.000
12.71000 647.000
12.75500 669.000
12.80000 636.000
12.84500 610.000
12.89000 634.000
12.93500 632.000
12.98000 610.000
13.02500 674.000
13.07000 583.000
13.11500 564.000
13.16000 570.000
13.20500 583.000
13.25000 605.000
13.29500 574.000
13.34000 603.000
13.38500 593.000
13.43000 592.000
13.47500 599.000
13.52000 579.000
13.56500 579.000
13.61000 562.000
13.65500 583.000
13.70000 591.000
13.74500 598.000
13.79000 590.000
13.83500 574.000
13.88000 557.000
13.92500 624.000
13.97000 594.000
14.01500 559.000
14.06000 585.000
14.10500 567.000
14.15000 576.000
14.19500 568.000
14.24000 574.000
14.28500 590.000
14.33000 547.000
14.37500 570.000
14.42000 563.000
14.46500 579.000
14.51000 615.000
14.55500 570.000
14.60000 569.000
14.64500 548.000
14.69000 578.000
14.73500 567.000
14.78000 569.000
14.82500 637.000
14.87000 577.000
14.91500 565.000
14.96000 626.000
15.00500 583.000
15.05000 582.000
15.09500 560.000
15.14000 562.000
15.18500 575.000
15.23000 595.000
15.27500 600.000
15.32000 574.000
15.36500 533.000
15.41000 584.000
15.45500 537.000
15.50000 556.000
15.54500 558.000
15.59000 579.000
15.63500 579.000
15.68000 588.000
15.72500 630.000
15.77000 549.000
15.81500 619.000
15.86000 588.000
15.90500 565.000
15.95000 571.000
15.99500 599.000
16.04000 601.000
16.08500 612.000
16.13000 558.000
16.17500 589.000
16.22000 604.000
16.26500 594.000
16.31000 582.000
16.35500 571.000
16.40000 594.000
16.44500 571.000
16.49000 570.000
16.53500 557.000
16.58000 602.000
16.62500 582.000
16.67000 569.000
16.71500 565.000
16.76000 611.000
16.80500 590.000
16.85000 563.000
16.89500 557.000
16.94000 545.000
16.98500 547.000
17.03000 569.000
17.07500 554.000
17.12000 590.000
17.16500 564.000
17.21000 563.000
17.25500 556.000
17.30000 558.000
17.34500 540.000
17.39000 569.000
17.43500 639.000
17.48000 601.000
17.52500 587.000
17.57000 621.000
17.61500 619.000
17.66000 646.000
17.70500 587.000
17.75000 594.000
17.79500 605.000
17.84000 620.000
17.88500 607.000
17.93000 627.000
17.97500 542.000
18.02000 559.000
18.06500 572.000
18.11000 595.000
18.15500 597.000
18.20000 551.000
18.24500 605.000
18.29000 600.000
18.33500 568.000
18.38000 574.000
18.42500 573.000
18.47000 575.000
18.51500 595.000
18.56000 624.000
18.60500 601.000
18.65000 580.000
18.69500 579.000
18.74000 601.000
18.78500 632.000
18.83000 542.000
18.87500 561.000
18.92000 584.000
18.96500 602.000
19.01000 564.000
19.05500 596.000
19.10000 587.000
19.14500 611.000
19.19000 609.000
19.23500 575.000
19.28000 588.000
19.32500 581.000
19.37000 616.000
19.41500 607.000
19.46000 590.000
19.50500 595.000
19.55000 575.000
19.59500 590.000
19.64000 551.000
19.68500 594.000
19.73000 594.000
19.77500 602.000
19.82000 599.000
19.86500 593.000
19.91000 604.000
19.95500 613.000
20.00000 606.000
20.04500 574.000
20.09000 591.000
20.13500 616.000
20.18000 634.000
20.22500 608.000
20.27000 592.000
20.31500 615.000
20.36000 610.000
20.40500 614.000
20.45000 604.000
20.49500 622.000
20.54000 636.000
20.58500 568.000
20.63000 631.000
20.67500 660.000
20.72000 685.000
20.76500 674.000
20.81000 776.000
20.85500 795.000
20.90000 911.000
20.94500 992.000
20.99000 1128.000
21.03500 1085.000
21.08000 1010.000
21.12500 931.000
21.17000 884.000
21.21500 726.000
21.26000 701.000
21.30500 687.000
21.35000 688.000
21.39500 660.000
21.44000 701.000
21.48500 657.000
21.53000 583.000
21.57500 633.000
21.62000 627.000
21.66500 674.000
21.71000 647.000
21.75500 650.000
21.80000 649.000
21.84500 622.000
21.89000 669.000
21.93500 645.000
21.98000 610.000
22.02500 614.000
22.07000 616.000
22.11500 651.000
22.16000 608.000
22.20500 596.000
22.25000 588.000
22.29500 608.000
22.34000 633.000
22.38500 614.000
22.43000 631.000
22.47500 608.000
22.52000 580.000
22.56500 586.000
22.61000 608.000
22.65500 604.000
22.70000 582.000
22.74500 568.000
22.79000 585.000
22.83500 589.000
22.88000 592.000
22.92500 594.000
22.97000 557.000
23.01500 581.000
23.06000 594.000
23.10500 553.000
23.15000 601.000
23.19500 578.000
23.24000 623.000
23.28500 585.000
23.33000 578.000
23.37500 547.000
23.42000 610.000
23.46500 631.000
23.51000 611.000
23.55500 622.000
23.60000 579.000
23.64500 584.000
23.69000 556.000
23.73500 589.000
23.78000 638.000
23.82500 634.000
23.87000 604.000
23.91500 618.000
23.96000 612.000
24.00500 622.000
24.05000 587.000
24.09500 676.000
24.14000 623.000
24.18500 724.000
24.23000 834.000
24.27500 805.000
24.32000 811.000
24.36500 809.000
24.41000 820.000
24.45500 708.000
24.50000 697.000
24.54500 674.000
24.59000 720.000
24.63500 661.000
24.68000 715.000
24.72500 726.000
24.77000 701.000
24.81500 696.000
24.86000 707.000
24.90500 710.000
24.95000 681.000
24.99500 660.000
25.04000 668.000
25.08500 633.000
25.13000 613.000
25.17500 628.000
25.22000 618.000
25.26500 560.000
25.31000 621.000
25.35500 616.000
25.40000 627.000
25.44500 633.000
25.49000 664.000
25.53500 611.000
25.58000 666.000
25.62500 678.000
25.67000 740.000
25.71500 698.000
25.76000 690.000
25.80500 710.000
25.85000 775.000
25.89500 737.000
25.94000 752.000
25.98500 806.000
26.03000 951.000
26.07500 979.000
26.12000 1142.000
26.16500 1398.000
26.21000 1494.000
26.25500 1618.000
26.30000 1649.000
26.34500 1600.000
26.39000 1486.000
26.43500 1336.000
26.48000 1177.000
26.52500 1102.000
26.57000 1028.000
26.61500 923.000
26.66000 922.000
26.70500 879.000
26.75000 825.000
26.79500 852.000
26.84000 789.000
26.88500 852.000
26.93000 855.000
26.97500 909.000
27.02000 907.000
27.06500 906.000
27.11000 999.000
27.15500 1066.000
27.20000 1164.000
27.24500 1205.000
27.29000 1310.000
27.33500 1496.000
27.38000 1566.000
27.42500 1765.000
27.47000 1997.000
27.51500 2188.000
27.56000 2443.000
27.60500 2653.000
27.65000 2943.000
27.69500 3142.000
27.74000 3266.000
27.78500 3303.000
27.83000 3255.000
27.87500 3173.000
27.92000 2855.000
27.96500 2536.000
28.01000 2333.000
28.05500 1919.000
28.10000 1670.000
28.14500 1435.000
28.19000 1330.000
28.23500 1204.000
28.28000 1074.000
28.32500 920.000
28.37000 851.000
28.41500 875.000
28.46000 844.000
28.50500 881.000
28.55000 853.000
28.59500 897.000
28.64000 876.000
28.68500 928.000
28.73000 1014.000
28.77500 1042.000
28.82000 1139.000
28.86500 1221.000
28.91000 1305.000
28.95500 1302.000
29.00000 1361.000
29.04500 1384.000
29.09000 1349.000
29.13500 1284.000
29.18000 1204.000
29.22500 1098.000
29.27000 978.000
29.31500 895.000
29.36000 833.000
29.40500 786.000
29.45000 733.000
29.49500 691.000
29.54000 664.000
29.58500 701.000
29.63000 614.000
29.67500 595.000
29.72000 589.000
29.76500 591.000
29.81000 586.000
29.85500 537.000
29.90000 548.000
29.94500 546.000
29.99000 515.000
30.03500 537.000
30.08000 546.000
30.12500 529.000
30.17000 535.000
30.21500 507.000
30.26000 532.000
30.30500 510.000
30.35000 514.000
30.39500 521.000
30.44000 527.000
30.48500 524.000
30.53000 490.000
30.57500 494.000
30.62000 505.000
30.66500 513.000
30.71000 497.000
30.75500 474.000
30.80000 490.000
30.84500 456.000
30.89000 488.000
30.93500 477.000
30.98000 465.000
31.02500 489.000
31.07000 460.000
31.11500 485.000
31.16000 456.000
31.20500 455.000
31.25000 465.000
31.29500 458.000
31.34000 455.000
31.38500 461.000
31.43000 489.000
31.47500 446.000
31.52000 445.000
31.56500 438.000
31.61000 446.000
31.65500 439.000
31.70000 441.000
31.74500 425.000
31.79000 454.000
31.83500 437.000
31.88000 443.000
31.92500 426.000
31.97000 440.000
32.01500 475.000
32.06000 505.000
32.10500 489.000
32.15000 527.000
32.19500 568.000
32.24000 676.000
32.28500 705.000
32.33000 800.000
32.37500 792.000
32.42000 746.000
32.46500 666.000
32.51000 618.000
32.55500 557.000
32.60000 452.000
32.64500 474.000
32.69000 427.000
32.73500 437.000
32.78000 433.000
32.82500 420.000
32.87000 399.000
32.91500 401.000
32.96000 363.000
33.00500 385.000
33.05000 415.000
33.09500 401.000
33.14000 410.000
33.18500 370.000
33.23000 367.000
33.27500 373.000
33.32000 395.000
33.36500 384.000
33.41000 376.000
33.45500 394.000
33.50000 359.000
33.54500 373.000
33.59000 406.000
33.63500 413.000
33.68000 387.000
33.72500 371.000
33.77000 382.000
33.81500 397.000
33.86000 371.000
33.90500 390.000
33.95000 379.000
33.99500 378.000
34.04000 398.000
34.08500 402.000
34.13000 340.000
34.17500 391.000
34.22000 360.000
34.26500 345.000
34.31000 397.000
34.35500 345.000
34.40000 359.000
34.44500 343.000
34.49000 346.000
34.53500 383.000
34.58000 339.000
34.62500 375.000
34.67000 348.000
34.71500 342.000
34.76000 382.000
34.80500 398.000
34.85000 361.000
34.89500 358.000
34.94000 348.000
34.98500 366.000
35.03000 346.000
35.07500 339.000
35.12000 356.000
35.16500 367.000
35.21000 359.000
35.25500 319.000
35.30000 323.000
35.34500 338.000
35.39000 332.000
35.43500 326.000
35.48000 317.000
35.52500 336.000
35.57000 348.000
35.61500 363.000
35.66000 319.000
35.70500 333.000
35.75000 372.000
35.79500 359.000
35.84000 331.000
35.88500 358.000
35.93000 349.000
35.97500 329.000
36.02000 377.000
36.06500 344.000
36.11000 359.000
36.15500 340.000
36.20000 334.000
36.24500 340.000
36.29000 322.000
36.33500 329.000
36.38000 316.000
36.42500 328.000
36.47000 351.000
36.51500 307.000
36.56000 307.000
36.60500 319.000
36.65000 325.000
36.69500 312.000
36.74000 302.000
36.78500 329.000
36.83000 340.000
36.87500 327.000
36.92000 317.000
36.96500 304.000
37.01000 318.000
37.05500 320.000
37.10000 309.000
37.14500 285.000
37.19000 286.000
37.23500 302.000
37.28000 293.000
37.32500 307.000
37.37000 301.000
37.41500 296.000
37.46000 273.000
37.50500 282.000
37.55000 273.000
37.59500 274.000
37.64000 283.000
37.68500 262.000
37.73000 258.000
37.77500 275.000
37.82000 270.000
37.86500 290.000
37.91000 269.000
37.95500 286.000
38.00000 263.000
38.04500 275.000
38.09000 249.000
38.13500 268.000
38.18000 280.000
38.22500 285.000
38.27000 275.000
38.31500 257.000
38.36000 260.000
38.40500 274.000
38.45000 260.000
38.49500 250.000
38.54000 272.000
38.58500 263.000
38.63000 262.000
38.67500 249.000
38.72000 266.000
38.76500 265.000
38.81000 282.000
38.85500 292.000
38.90000 281.000
38.94500 269.000
38.99000 300.000
39.03500 267.000
39.08000 246.000
39.12500 265.000
39.17000 287.000
39.21500 273.000
39.26000 243.000
39.30500 280.000
39.35000 285.000
39.39500 276.000
39.44000 269.000
39.48500 279.000
39.53000 262.000
39.57500 269.000
39.62000 275.000
39.66500 256.000
39.71000 269.000
39.75500 264.000
39.80000 277.000
39.84500 247.000
39.89000 313.000
39.93500 264.000
39.98000 250.000
40.02500 271.000
40.07000 260.000
40.11500 270.000
40.16000 262.000
40.20500 275.000
40.25000 278.000
40.29500 275.000
40.34000 256.000
40.38500 272.000
40.43000 286.000
40.47500 299.000
40.52000 300.000
40.56500 276.000
40.61000 289.000
40.65500 274.000
40.70000 280.000
40.74500 273.000
40.79000 284.000
40.83500 285.000
40.88000 267.000
40.92500 268.000
40.97000 256.000
41.01500 264.000
41.06000 290.000
41.10500 262.000
41.15000 282.000
41.19500 274.000
41.24000 260.000
41.28500 277.000
41.33000 254.000
41.37500 254.000
41.42000 259.000
41.46500 270.000
41.51000 281.000
41.55500 275.000
41.60000 262.000
41.64500 276.000
41.69000 264.000
41.73500 260.000
41.78000 295.000
41.82500 289.000
41.87000 285.000
41.91500 255.000
41.96000 278.000
42.00500 278.000
42.05000 268.000
42.09500 281.000
42.14000 264.000
42.18500 273.000
42.23000 266.000
42.27500 264.000
42.32000 267.000
42.36500 282.000
42.41000 262.000
42.45500 286.000
42.50000 269.000
42.54500 303.000
42.59000 306.000
42.63500 322.000
42.68000 328.000
42.72500 341.000
42.77000 365.000
42.81500 371.000
42.86000 351.000
42.90500 332.000
42.95000 322.000
42.99500 312.000
43.04000 273.000
43.08500 296.000
43.13000 276.000
43.17500 289.000
43.22000 291.000
43.26500 283.000
43.31000 294.000
43.35500 298.000
43.40000 294.000
43.44500 253.000
43.49000 286.000
43.53500 297.000
43.58000 281.000
43.62500 251.000
43.67000 290.000
43.71500 296.000
43.76000 283.000
43.80500 294.000
43.85000 312.000
43.89500 285.000
43.94000 271.000
43.98500 295.000
44.03000 272.000
44.07500 292.000
44.12000 264.000
44.16500 283.000
44.21000 302.000
44.25500 295.000
44.30000 309.000
44.34500 301.000
44.39000 321.000
44.43500 334.000
44.48000 325.000
44.52500 340.000
44.57000 386.000
44.61500 375.000
44.66000 397.000
44.70500 379.000
44.75000 362.000
44.79500 372.000
44.84000 398.000
44.88500 363.000
44.93000 344.000
44.97500 316.000
45.02000 337.000
45.06500 342.000
45.11000 325.000
45.15500 315.000
45.20000 308.000
45.24500 301.000
45.29000 303.000
45.33500 300.000
45.38000 289.000
45.42500 292.000
45.47000 282.000
45.51500 323.000
45.56000 306.000
45.60500 296.000
45.65000 310.000
45.69500 309.000
45.74000 314.000
45.78500 306.000
45.83000 307.000
45.87500 312.000
45.92000 295.000
45.96500 281.000
46.01000 321.000
46.05500 312.000
46.10000 303.000
46.14500 328.000
46.19000 305.000
46.23500 298.000
46.28000 275.000
46.32500 282.000
46.37000 290.000
46.41500 302.000
46.46000 284.000
46.50500 311.000
46.55000 297.000
46.59500 312.000
46.64000 338.000
46.68500 313.000
46.73000 306.000
46.77500 293.000
46.82000 302.000
46.86500 285.000
46.91000 283.000
46.95500 299.000
47.00000 276.000
47.04500 269.000
47.09000 277.000
47.13500 264.000
47.18000 278.000
47.22500 284.000
47.27000 261.000
47.31500 255.000
47.36000 235.000
47.40500 258.000
47.45000 250.000
47.49500 244.000
47.54000 245.000
47.58500 252.000
47.63000 253.000
47.67500 257.000
47.72000 226.000
47.76500 233.000
47.81000 246.000
47.85500 249.000
47.90000 247.000
47.94500 237.000
47.99000 250.000
48.03500 213.000
48.08000 239.000
48.12500 227.000
48.17000 209.000
48.21500 251.000
48.26000 235.000
48.30500 241.000
48.35000 271.000
48.39500 224.000
48.44000 230.000
48.48500 226.000
48.53000 217.000
48.57500 237.000
48.62000 232.000
48.66500 247.000
48.71000 248.000
48.75500 224.000
48.80000 253.000
48.84500 215.000
48.89000 266.000
48.93500 254.000
48.98000 236.000
49.02500 230.000
49.07000 245.000
49.11500 229.000
49.16000 247.000
49.20500 234.000
49.25000 238.000
49.29500 222.000
49.34000 235.000
49.38500 230.000
49.43000 232.000
49.47500 216.000
49.52000 230.000
49.56500 221.000
49.61000 241.000
49.65500 236.000
49.70000 246.000
49.74500 246.000
49.79000 242.000
49.83500 235.000
49.88000 233.000
49.92500 257.000
49.97000 246.000
50.01500 274.000
50.06000 248.000
50.10500 248.000
50.15000 267.000
50.19500 229.000
50.24000 251.000
50.28500 252.000
50.33000 251.000
50.37500 263.000
50.42000 269.000
50.46500 278.000
50.51000 301.000
50.55500 294.000
50.60000 296.000
50.64500 304.000
50.69000 320.000
50.73500 342.000
50.78000 342.000
50.82500 331.000
50.87000 355.000
50.91500 332.000
50.96000 338.000
51.00500 315.000
51.05000 299.000
51.09500 311.000
51.14000 302.000
51.18500 299.000
51.23000 273.000
51.27500 288.000
51.32000 283.000
51.36500 291.000
51.41000 278.000
51.45500 248.000
51.50000 235.000
51.54500 266.000
51.59000 238.000
51.63500 252.000
51.68000 240.000
51.72500 245.000
51.77000 243.000
51.81500 224.000
51.86000 222.000
51.90500 242.000
51.95000 231.000
51.99500 239.000
52.04000 232.000
52.08500 235.000
52.13000 233.000
52.17500 227.000
52.22000 243.000
52.26500 227.000
52.31000 216.000
52.35500 228.000
52.40000 207.000
52.44500 232.000
52.49000 241.000
52.53500 233.000
52.58000 216.000
52.62500 247.000
52.67000 227.000
52.71500 225.000
52.76000 215.000
52.80500 224.000
52.85000 226.000
52.89500 223.000
52.94000 251.000
52.98500 212.000
53.03000 220.000
53.07500 229.000
53.12000 203.000
53.16500 199.000
53.21000 217.000
53.25500 201.000
53.30000 229.000
53.34500 220.000
53.39000 205.000
53.43500 206.000
53.48000 235.000
53.52500 220.000
53.57000 234.000
53.61500 223.000
53.66000 221.000
53.70500 214.000
53.75000 218.000
53.79500 257.000
53.84000 239.000
53.88500 248.000
53.93000 240.000
53.97500 277.000
54.02000 285.000
54.06500 279.000
54.11000 287.000
54.15500 280.000
54.20000 289.000
54.24500 280.000
54.29000 275.000
54.33500 258.000
54.38000 259.000
54.42500 267.000
54.47000 273.000
54.51500 275.000
54.56000 278.000
54.60500 311.000
54.65000 315.000
54.69500 307.000
54.74000 254.000
54.78500 261.000
54.83000 258.000
54.87500 250.000
54.92000 204.000
54.96500 221.000
55.01000 216.000
55.05500 214.000
55.10000 199.000
55.14500 203.000
55.19000 213.000
55.23500 210.000
55.28000 222.000
55.32500 191.000
55.37000 213.000
55.41500 188.000
55.46000 206.000
55.50500 236.000
55.55000 199.000
55.59500 209.000
55.64000 214.000
55.68500 217.000
55.73000 206.000
55.77500 194.000
55.82000 190.000
55.86500 182.000
55.91000 219.000
55.95500 193.000
56.00000 198.000
56.04500 198.000
56.09000 198.000
56.13500 200.000
56.18000 196.000
56.22500 202.000
56.27000 207.000
56.31500 218.000
56.36000 194.000
56.40500 211.000
56.45000 231.000
56.49500 225.000
56.54000 227.000
56.58500 241.000
56.63000 217.000
56.67500 233.000
56.72000 237.000
56.76500 224.000
56.81000 223.000
56.85500 235.000
56.90000 229.000
56.94500 225.000
56.99000 228.000
57.03500 213.000
57.08000 268.000
57.12500 257.000
57.17000 241.000
57.21500 247.000
57.26000 249.000
57.30500 257.000
57.35000 225.000
57.39500 258.000
57.44000 243.000
57.48500 265.000
57.53000 263.000
57.57500 278.000
57.62000 237.000
57.66500 265.000
57.71000 258.000
57.75500 247.000
57.80000 253.000
57.84500 265.000
57.89000 251.000
57.93500 259.000
57.98000 221.000
58.02500 236.000
58.07000 228.000
58.11500 230.000
58.16000 234.000
58.20500 219.000
58.25000 223.000
58.29500 212.000
58.34000 214.000
58.38500 217.000
58.43000 195.000
58.47500 208.000
58.52000 207.000
58.56500 179.000
58.61000 213.000
58.65500 212.000
58.70000 202.000
58.74500 220.000
58.79000 205.000
58.83500 190.000
58.88000 205.000
58.92500 198.000
58.97000 205.000
59.01500 199.000
59.06000 217.000
59.10500 219.000
59.15000 208.000
59.19500 192.000
59.24000 197.000
59.28500 177.000
59.33000 183.000
59.37500 200.000
59.42000 180.000
59.46500 199.000
59.51000 179.000
59.55500 201.000
59.60000 201.000
59.64500 207.000
59.69000 175.000
59.73500 201.000
59.78000 188.000
59.82500 209.000
59.87000 195.000
59.91500 190.000
59.96000 181.000
60.00500 198.000
60.05000 185.000
60.09500 194.000
60.14000 196.000
60.18500 189.000
60.23000 200.000
60.27500 189.000
60.32000 186.000
60.36500 196.000
60.41000 205.000
60.45500 201.000
60.50000 189.000
60.54500 197.000
60.59000 181.000
60.63500 192.000
60.68000 162.000
60.72500 184.000
60.77000 183.000
60.81500 166.000
60.86000 185.000
60.90500 187.000
60.95000 180.000
60.99500 189.000
61.04000 193.000
61.08500 188.000
61.13000 192.000
61.17500 181.000
61.22000 191.000
61.26500 182.000
61.31000 173.000
61.35500 182.000
61.40000 175.000
61.44500 181.000
61.49000 182.000
61.53500 185.000
61.58000 183.000
61.62500 173.000
61.67000 187.000
61.71500 177.000
61.76000 182.000
61.80500 186.000
61.85000 177.000
61.89500 174.000
61.94000 167.000
61.98500 157.000