File: ISoD/xrd_data/HSC064_Rueck.xy
2.00000 4.000
2.04500 2.000
2.09000 3.000
2.13500 3.000
2.18000 2.000
2.22500 1.000
2.27000 4.000
2.31500 5.000
2.36000 2.000
2.40500 3.000
2.45000 4.000
2.49500 2.000
2.54000 5.000
2.58500 2.000
2.63000 2.000
2.67500 7.000
2.72000 6.000
2.76500 5.000
2.81000 4.000
2.85500 3.000
2.90000 2.000
2.94500 3.000
2.99000 6.000
3.03500 5.000
3.08000 6.000
3.12500 6.000
3.17000 22.000
3.21500 182.000
3.26000 546.000
3.30500 777.000
3.35000 728.000
3.39500 701.000
3.44000 646.000
3.48500 674.000
3.53000 637.000
3.57500 604.000
3.62000 577.000
3.66500 573.000
3.71000 534.000
3.75500 531.000
3.80000 472.000
3.84500 483.000
3.89000 491.000
3.93500 455.000
3.98000 433.000
4.02500 441.000
4.07000 424.000
4.11500 393.000
4.16000 395.000
4.20500 378.000
4.25000 359.000
4.29500 366.000
4.34000 362.000
4.38500 362.000
4.43000 325.000
4.47500 331.000
4.52000 321.000
4.56500 298.000
4.61000 311.000
4.65500 319.000
4.70000 320.000
4.74500 293.000
4.79000 265.000
4.83500 291.000
4.88000 270.000
4.92500 270.000
4.97000 276.000
5.01500 289.000
5.06000 268.000
5.10500 265.000
5.15000 248.000
5.19500 258.000
5.24000 262.000
5.28500 235.000
5.33000 231.000
5.37500 218.000
5.42000 219.000
5.46500 248.000
5.51000 243.000
5.55500 228.000
5.60000 255.000
5.64500 241.000
5.69000 228.000
5.73500 229.000
5.78000 221.000
5.82500 217.000
5.87000 225.000
5.91500 251.000
5.96000 216.000
6.00500 224.000
6.05000 205.000
6.09500 208.000
6.14000 216.000
6.18500 202.000
6.23000 230.000
6.27500 206.000
6.32000 194.000
6.36500 208.000
6.41000 202.000
6.45500 218.000
6.50000 199.000
6.54500 213.000
6.59000 197.000
6.63500 185.000
6.68000 209.000
6.72500 229.000
6.77000 226.000
6.81500 214.000
6.86000 205.000
6.90500 211.000
6.95000 209.000
6.99500 208.000
7.04000 212.000
7.08500 203.000
7.13000 213.000
7.17500 209.000
7.22000 217.000
7.26500 219.000
7.31000 238.000
7.35500 245.000
7.40000 258.000
7.44500 241.000
7.49000 253.000
7.53500 247.000
7.58000 280.000
7.62500 281.000
7.67000 325.000
7.71500 358.000
7.76000 410.000
7.80500 442.000
7.85000 545.000
7.89500 565.000
7.94000 610.000
7.98500 645.000
8.03000 669.000
8.07500 667.000
8.12000 664.000
8.16500 634.000
8.21000 640.000
8.25500 561.000
8.30000 548.000
8.34500 541.000
8.39000 515.000
8.43500 481.000
8.48000 497.000
8.52500 480.000
8.57000 459.000
8.61500 449.000
8.66000 461.000
8.70500 427.000
8.75000 433.000
8.79500 456.000
8.84000 417.000
8.88500 426.000
8.93000 443.000
8.97500 405.000
9.02000 401.000
9.06500 446.000
9.11000 408.000
9.15500 428.000
9.20000 405.000
9.24500 386.000
9.29000 377.000
9.33500 362.000
9.38000 373.000
9.42500 384.000
9.47000 358.000
9.51500 354.000
9.56000 373.000
9.60500 369.000
9.65000 353.000
9.69500 319.000
9.74000 345.000
9.78500 294.000
9.83000 297.000
9.87500 295.000
9.92000 285.000
9.96500 289.000
10.01000 299.000
10.05500 262.000
10.10000 282.000
10.14500 253.000
10.19000 228.000
10.23500 262.000
10.28000 219.000
10.32500 228.000
10.37000 251.000
10.41500 242.000
10.46000 211.000
10.50500 213.000
10.55000 229.000
10.59500 216.000
10.64000 208.000
10.68500 215.000
10.73000 209.000
10.77500 205.000
10.82000 192.000
10.86500 207.000
10.91000 177.000
10.95500 190.000
11.00000 176.000
11.04500 170.000
11.09000 183.000
11.13500 204.000
11.18000 176.000
11.22500 188.000
11.27000 176.000
11.31500 177.000
11.36000 181.000
11.40500 206.000
11.45000 182.000
11.49500 201.000
11.54000 195.000
11.58500 185.000
11.63000 185.000
11.67500 195.000
11.72000 187.000
11.76500 174.000
11.81000 207.000
11.85500 190.000
11.90000 172.000
11.94500 178.000
11.99000 162.000
12.03500 182.000
12.08000 165.000
12.12500 183.000
12.17000 172.000
12.21500 190.000
12.26000 177.000
12.30500 175.000
12.35000 187.000
12.39500 170.000
12.44000 184.000
12.48500 175.000
12.53000 168.000
12.57500 196.000
12.62000 185.000
12.66500 181.000
12.71000 163.000
12.75500 173.000
12.80000 171.000
12.84500 174.000
12.89000 174.000
12.93500 189.000
12.98000 179.000
13.02500 164.000
13.07000 176.000
13.11500 191.000
13.16000 174.000
13.20500 172.000
13.25000 181.000
13.29500 178.000
13.34000 183.000
13.38500 169.000
13.43000 171.000
13.47500 184.000
13.52000 198.000
13.56500 194.000
13.61000 172.000
13.65500 175.000
13.70000 184.000
13.74500 188.000
13.79000 183.000
13.83500 197.000
13.88000 198.000
13.92500 201.000
13.97000 185.000
14.01500 207.000
14.06000 188.000
14.10500 197.000
14.15000 185.000
14.19500 184.000
14.24000 194.000
14.28500 195.000
14.33000 196.000
14.37500 178.000
14.42000 184.000
14.46500 177.000
14.51000 178.000
14.55500 173.000
14.60000 192.000
14.64500 182.000
14.69000 178.000
14.73500 193.000
14.78000 193.000
14.82500 175.000
14.87000 207.000
14.91500 195.000
14.96000 197.000
15.00500 207.000
15.05000 195.000
15.09500 170.000
15.14000 227.000
15.18500 158.000
15.23000 197.000
15.27500 183.000
15.32000 190.000
15.36500 198.000
15.41000 192.000
15.45500 194.000
15.50000 194.000
15.54500 204.000
15.59000 184.000
15.63500 177.000
15.68000 195.000
15.72500 180.000
15.77000 182.000
15.81500 209.000
15.86000 224.000
15.90500 192.000
15.95000 208.000
15.99500 207.000
16.04000 188.000
16.08500 196.000
16.13000 211.000
16.17500 187.000
16.22000 205.000
16.26500 196.000
16.31000 211.000
16.35500 192.000
16.40000 207.000
16.44500 178.000
16.49000 216.000
16.53500 224.000
16.58000 223.000
16.62500 201.000
16.67000 219.000
16.71500 210.000
16.76000 200.000
16.80500 201.000
16.85000 202.000
16.89500 231.000
16.94000 231.000
16.98500 214.000
17.03000 220.000
17.07500 191.000
17.12000 198.000
17.16500 199.000
17.21000 195.000
17.25500 209.000
17.30000 200.000
17.34500 176.000
17.39000 191.000
17.43500 194.000
17.48000 195.000
17.52500 203.000
17.57000 200.000
17.61500 200.000
17.66000 206.000
17.70500 200.000
17.75000 203.000
17.79500 193.000
17.84000 187.000
17.88500 198.000
17.93000 195.000
17.97500 182.000
18.02000 200.000
18.06500 185.000
18.11000 174.000
18.15500 178.000
18.20000 188.000
18.24500 158.000
18.29000 182.000
18.33500 185.000
18.38000 181.000
18.42500 181.000
18.47000 189.000
18.51500 191.000
18.56000 168.000
18.60500 205.000
18.65000 194.000
18.69500 205.000
18.74000 189.000
18.78500 175.000
18.83000 164.000
18.87500 184.000
18.92000 181.000
18.96500 202.000
19.01000 200.000
19.05500 208.000
19.10000 220.000
19.14500 197.000
19.19000 181.000
19.23500 167.000
19.28000 188.000
19.32500 190.000
19.37000 179.000
19.41500 191.000
19.46000 186.000
19.50500 210.000
19.55000 196.000
19.59500 181.000
19.64000 186.000
19.68500 198.000
19.73000 192.000
19.77500 180.000
19.82000 191.000
19.86500 177.000
19.91000 195.000
19.95500 186.000
20.00000 189.000
20.04500 185.000
20.09000 189.000
20.13500 179.000
20.18000 201.000
20.22500 217.000
20.27000 184.000
20.31500 185.000
20.36000 183.000
20.40500 199.000
20.45000 175.000
20.49500 183.000
20.54000 202.000
20.58500 204.000
20.63000 201.000
20.67500 181.000
20.72000 204.000
20.76500 206.000
20.81000 208.000
20.85500 191.000
20.90000 206.000
20.94500 207.000
20.99000 217.000
21.03500 240.000
21.08000 200.000
21.12500 254.000
21.17000 242.000
21.21500 250.000
21.26000 244.000
21.30500 252.000
21.35000 245.000
21.39500 265.000
21.44000 272.000
21.48500 265.000
21.53000 285.000
21.57500 272.000
21.62000 251.000
21.66500 250.000
21.71000 262.000
21.75500 253.000
21.80000 256.000
21.84500 250.000
21.89000 239.000
21.93500 241.000
21.98000 252.000
22.02500 236.000
22.07000 214.000
22.11500 247.000
22.16000 239.000
22.20500 214.000
22.25000 253.000
22.29500 241.000
22.34000 246.000
22.38500 250.000
22.43000 252.000
22.47500 239.000
22.52000 268.000
22.56500 257.000
22.61000 254.000
22.65500 249.000
22.70000 219.000
22.74500 232.000
22.79000 243.000
22.83500 254.000
22.88000 255.000
22.92500 233.000
22.97000 275.000
23.01500 238.000
23.06000 255.000
23.10500 259.000
23.15000 261.000
23.19500 258.000
23.24000 276.000
23.28500 270.000
23.33000 250.000
23.37500 278.000
23.42000 301.000
23.46500 272.000
23.51000 270.000
23.55500 285.000
23.60000 279.000
23.64500 278.000
23.69000 269.000
23.73500 281.000
23.78000 265.000
23.82500 257.000
23.87000 254.000
23.91500 284.000
23.96000 283.000
24.00500 287.000
24.05000 274.000
24.09500 304.000
24.14000 294.000
24.18500 295.000
24.23000 323.000
24.27500 301.000
24.32000 321.000
24.36500 311.000
24.41000 300.000
24.45500 285.000
24.50000 323.000
24.54500 307.000
24.59000 321.000
24.63500 295.000
24.68000 322.000
24.72500 353.000
24.77000 315.000
24.81500 329.000
24.86000 310.000
24.90500 316.000
24.95000 309.000
24.99500 306.000
25.04000 324.000
25.08500 333.000
25.13000 304.000
25.17500 302.000
25.22000 333.000
25.26500 319.000
25.31000 317.000
25.35500 319.000
25.40000 329.000
25.44500 315.000
25.49000 342.000
25.53500 320.000
25.58000 325.000
25.62500 315.000
25.67000 302.000
25.71500 312.000
25.76000 344.000
25.80500 324.000
25.85000 309.000
25.89500 325.000
25.94000 302.000
25.98500 308.000
26.03000 310.000
26.07500 332.000
26.12000 312.000
26.16500 335.000
26.21000 311.000
26.25500 324.000
26.30000 298.000
26.34500 322.000
26.39000 314.000
26.43500 307.000
26.48000 317.000
26.52500 314.000
26.57000 328.000
26.61500 309.000
26.66000 303.000
26.70500 312.000
26.75000 327.000
26.79500 326.000
26.84000 345.000
26.88500 332.000
26.93000 340.000
26.97500 322.000
27.02000 346.000
27.06500 339.000
27.11000 343.000
27.15500 351.000
27.20000 381.000
27.24500 354.000
27.29000 358.000
27.33500 364.000
27.38000 386.000
27.42500 391.000
27.47000 381.000
27.51500 392.000
27.56000 409.000
27.60500 421.000
27.65000 430.000
27.69500 465.000
27.74000 476.000
27.78500 475.000
27.83000 537.000
27.87500 552.000
27.92000 638.000
27.96500 659.000
28.01000 696.000
28.05500 812.000
28.10000 903.000
28.14500 1026.000
28.19000 1105.000
28.23500 1276.000
28.28000 1497.000
28.32500 1764.000
28.37000 1921.000
28.41500 2223.000
28.46000 2267.000
28.50500 2257.000
28.55000 2156.000
28.59500 1868.000
28.64000 1582.000
28.68500 1373.000
28.73000 1173.000
28.77500 996.000
28.82000 927.000
28.86500 786.000
28.91000 705.000
28.95500 648.000
29.00000 616.000
29.04500 560.000
29.09000 563.000
29.13500 501.000
29.18000 535.000
29.22500 486.000
29.27000 472.000
29.31500 448.000
29.36000 444.000
29.40500 411.000
29.45000 428.000
29.49500 422.000
29.54000 391.000
29.58500 387.000
29.63000 365.000
29.67500 374.000
29.72000 358.000
29.76500 359.000
29.81000 353.000
29.85500 375.000
29.90000 345.000
29.94500 343.000
29.99000 344.000
30.03500 325.000
30.08000 343.000
30.12500 342.000
30.17000 333.000
30.21500 320.000
30.26000 333.000
30.30500 285.000
30.35000 302.000
30.39500 291.000
30.44000 270.000
30.48500 298.000
30.53000 290.000
30.57500 293.000
30.62000 306.000
30.66500 293.000
30.71000 305.000
30.75500 296.000
30.80000 290.000
30.84500 289.000
30.89000 305.000
30.93500 265.000
30.98000 281.000
31.02500 284.000
31.07000 277.000
31.11500 266.000
31.16000 253.000
31.20500 264.000
31.25000 255.000
31.29500 257.000
31.34000 256.000
31.38500 233.000
31.43000 268.000
31.47500 264.000
31.52000 252.000
31.56500 271.000
31.61000 265.000
31.65500 239.000
31.70000 255.000
31.74500 242.000
31.79000 228.000
31.83500 238.000
31.88000 251.000
31.92500 242.000
31.97000 251.000
32.01500 259.000
32.06000 258.000
32.10500 245.000
32.15000 269.000
32.19500 255.000
32.24000 255.000
32.28500 278.000
32.33000 282.000
32.37500 313.000
32.42000 294.000
32.46500 266.000
32.51000 294.000
32.55500 274.000
32.60000 291.000
32.64500 292.000
32.69000 266.000
32.73500 258.000
32.78000 245.000
32.82500 238.000
32.87000 228.000
32.91500 220.000
32.96000 227.000
33.00500 228.000
33.05000 231.000
33.09500 224.000
33.14000 227.000
33.18500 209.000
33.23000 225.000
33.27500 199.000
33.32000 214.000
33.36500 200.000
33.41000 205.000
33.45500 215.000
33.50000 194.000
33.54500 213.000
33.59000 218.000
33.63500 204.000
33.68000 203.000
33.72500 205.000
33.77000 196.000
33.81500 208.000
33.86000 195.000
33.90500 233.000
33.95000 186.000
33.99500 192.000
34.04000 178.000
34.08500 190.000
34.13000 202.000
34.17500 178.000
34.22000 193.000
34.26500 187.000
34.31000 185.000
34.35500 188.000
34.40000 178.000
34.44500 176.000
34.49000 207.000
34.53500 167.000
34.58000 173.000
34.62500 191.000
34.67000 188.000
34.71500 185.000
34.76000 182.000
34.80500 170.000
34.85000 186.000
34.89500 181.000
34.94000 211.000
34.98500 222.000
35.03000 196.000
35.07500 218.000
35.12000 206.000
35.16500 226.000
35.21000 230.000
35.25500 231.000
35.30000 238.000
35.34500 241.000
35.39000 290.000
35.43500 279.000
35.48000 284.000
35.52500 296.000
35.57000 310.000
35.61500 273.000
35.66000 262.000
35.70500 280.000
35.75000 257.000
35.79500 280.000
35.84000 282.000
35.88500 280.000
35.93000 292.000
35.97500 286.000
36.02000 270.000
36.06500 270.000
36.11000 260.000
36.15500 289.000
36.20000 255.000
36.24500 277.000
36.29000 291.000
36.33500 259.000
36.38000 261.000
36.42500 249.000
36.47000 280.000
36.51500 266.000
36.56000 295.000
36.60500 260.000
36.65000 260.000
36.69500 259.000
36.74000 274.000
36.78500 277.000
36.83000 291.000
36.87500 260.000
36.92000 271.000
36.96500 276.000
37.01000 268.000
37.05500 296.000
37.10000 274.000
37.14500 278.000
37.19000 258.000
37.23500 267.000
37.28000 275.000
37.32500 309.000
37.37000 274.000
37.41500 282.000
37.46000 250.000
37.50500 250.000
37.55000 269.000
37.59500 252.000
37.64000 271.000
37.68500 263.000
37.73000 237.000
37.77500 253.000
37.82000 231.000
37.86500 234.000
37.91000 227.000
37.95500 220.000
38.00000 200.000
38.04500 206.000
38.09000 240.000
38.13500 220.000
38.18000 213.000
38.22500 214.000
38.27000 230.000
38.31500 208.000
38.36000 209.000
38.40500 210.000
38.45000 224.000
38.49500 198.000
38.54000 222.000
38.58500 217.000
38.63000 213.000
38.67500 205.000
38.72000 206.000
38.76500 230.000
38.81000 212.000
38.85500 213.000
38.90000 196.000
38.94500 204.000
38.99000 198.000
39.03500 203.000
39.08000 181.000
39.12500 212.000
39.17000 194.000
39.21500 198.000
39.26000 205.000
39.30500 188.000
39.35000 211.000
39.39500 206.000
39.44000 208.000
39.48500 208.000
39.53000 208.000
39.57500 205.000
39.62000 188.000
39.66500 197.000
39.71000 209.000
39.75500 199.000
39.80000 196.000
39.84500 188.000
39.89000 204.000
39.93500 208.000
39.98000 171.000
40.02500 186.000
40.07000 181.000
40.11500 191.000
40.16000 177.000
40.20500 181.000
40.25000 170.000
40.29500 182.000
40.34000 177.000
40.38500 177.000
40.43000 188.000
40.47500 195.000
40.52000 172.000
40.56500 178.000
40.61000 173.000
40.65500 159.000
40.70000 178.000
40.74500 168.000
40.79000 167.000
40.83500 170.000
40.88000 172.000
40.92500 169.000
40.97000 163.000
41.01500 189.000
41.06000 160.000
41.10500 176.000
41.15000 153.000
41.19500 189.000
41.24000 173.000
41.28500 156.000
41.33000 145.000
41.37500 162.000
41.42000 159.000
41.46500 155.000
41.51000 159.000
41.55500 169.000
41.60000 162.000
41.64500 152.000
41.69000 168.000
41.73500 158.000
41.78000 152.000
41.82500 144.000
41.87000 170.000
41.91500 145.000
41.96000 148.000
42.00500 171.000
42.05000 183.000
42.09500 155.000
42.14000 145.000
42.18500 156.000
42.23000 144.000
42.27500 163.000
42.32000 177.000
42.36500 160.000
42.41000 168.000
42.45500 164.000
42.50000 158.000
42.54500 163.000
42.59000 167.000
42.63500 165.000
42.68000 175.000
42.72500 178.000
42.77000 170.000
42.81500 178.000
42.86000 165.000
42.90500 183.000
42.95000 177.000
42.99500 191.000
43.04000 169.000
43.08500 200.000
43.13000 223.000
43.17500 199.000
43.22000 211.000
43.26500 199.000
43.31000 216.000
43.35500 239.000
43.40000 243.000
43.44500 225.000
43.49000 230.000
43.53500 254.000
43.58000 219.000
43.62500 230.000
43.67000 186.000
43.71500 206.000
43.76000 221.000
43.80500 194.000
43.85000 211.000
43.89500 202.000
43.94000 211.000
43.98500 218.000
44.03000 227.000
44.07500 229.000
44.12000 201.000
44.16500 207.000
44.21000 213.000
44.25500 209.000
44.30000 206.000
44.34500 222.000
44.39000 213.000
44.43500 212.000
44.48000 187.000
44.52500 208.000
44.57000 192.000
44.61500 209.000
44.66000 207.000
44.70500 205.000
44.75000 203.000
44.79500 193.000
44.84000 190.000
44.88500 190.000
44.93000 223.000
44.97500 202.000
45.02000 226.000
45.06500 191.000
45.11000 198.000
45.15500 181.000
45.20000 182.000
45.24500 154.000
45.29000 192.000
45.33500 169.000
45.38000 202.000
45.42500 171.000
45.47000 190.000
45.51500 183.000
45.56000 175.000
45.60500 194.000
45.65000 181.000
45.69500 191.000
45.74000 186.000
45.78500 181.000
45.83000 152.000
45.87500 175.000
45.92000 182.000
45.96500 168.000
46.01000 150.000
46.05500 172.000
46.10000 172.000
46.14500 159.000
46.19000 154.000
46.23500 155.000
46.28000 150.000
46.32500 162.000
46.37000 173.000
46.41500 144.000
46.46000 158.000
46.50500 158.000
46.55000 180.000
46.59500 158.000
46.64000 152.000
46.68500 168.000
46.73000 140.000
46.77500 171.000
46.82000 151.000
46.86500 164.000
46.91000 146.000
46.95500 152.000
47.00000 145.000
47.04500 123.000
47.09000 151.000
47.13500 134.000
47.18000 147.000
47.22500 141.000
47.27000 142.000
47.31500 124.000
47.36000 138.000
47.40500 155.000
47.45000 131.000
47.49500 163.000
47.54000 146.000
47.58500 145.000
47.63000 141.000
47.67500 137.000
47.72000 152.000
47.76500 129.000
47.81000 123.000
47.85500 123.000
47.90000 136.000
47.94500 120.000
47.99000 125.000
48.03500 161.000
48.08000 130.000
48.12500 134.000
48.17000 145.000
48.21500 116.000
48.26000 127.000
48.30500 129.000
48.35000 138.000
48.39500 138.000
48.44000 136.000
48.48500 118.000
48.53000 127.000
48.57500 133.000
48.62000 112.000
48.66500 137.000
48.71000 124.000
48.75500 131.000
48.80000 134.000
48.84500 133.000
48.89000 140.000
48.93500 113.000
48.98000 110.000
49.02500 141.000
49.07000 130.000
49.11500 121.000
49.16000 113.000
49.20500 126.000
49.25000 132.000
49.29500 131.000
49.34000 135.000
49.38500 110.000
49.43000 130.000
49.47500 136.000
49.52000 113.000
49.56500 135.000
49.61000 134.000
49.65500 130.000
49.70000 116.000
49.74500 114.000
49.79000 128.000
49.83500 131.000
49.88000 129.000
49.92500 118.000
49.97000 129.000
50.01500 132.000
50.06000 137.000
50.10500 137.000
50.15000 135.000
50.19500 138.000
50.24000 119.000
50.28500 148.000
50.33000 136.000
50.37500 149.000
50.42000 125.000
50.46500 138.000
50.51000 142.000
50.55500 126.000
50.60000 126.000
50.64500 126.000
50.69000 120.000
50.73500 102.000
50.78000 123.000
50.82500 139.000
50.87000 136.000
50.91500 135.000
50.96000 140.000
51.00500 145.000
51.05000 145.000
51.09500 117.000
51.14000 127.000
51.18500 124.000
51.23000 135.000
51.27500 134.000
51.32000 131.000
51.36500 117.000
51.41000 126.000
51.45500 135.000
51.50000 145.000
51.54500 116.000
51.59000 129.000
51.63500 150.000
51.68000 144.000
51.72500 136.000
51.77000 125.000
51.81500 133.000
51.86000 155.000
51.90500 117.000
51.95000 136.000
51.99500 136.000
52.04000 121.000
52.08500 147.000
52.13000 132.000
52.17500 121.000
52.22000 123.000
52.26500 120.000
52.31000 135.000
52.35500 139.000
52.40000 139.000
52.44500 141.000
52.49000 147.000
52.53500 133.000
52.58000 131.000
52.62500 125.000
52.67000 119.000
52.71500 115.000
52.76000 126.000
52.80500 125.000
52.85000 102.000
52.89500 135.000
52.94000 110.000
52.98500 128.000
53.03000 141.000
53.07500 134.000
53.12000 132.000
53.16500 138.000
53.21000 123.000
53.25500 113.000
53.30000 135.000
53.34500 146.000
53.39000 138.000
53.43500 136.000
53.48000 131.000
53.52500 122.000
53.57000 138.000
53.61500 114.000
53.66000 136.000
53.70500 121.000
53.75000 133.000
53.79500 119.000
53.84000 123.000
53.88500 136.000
53.93000 136.000
53.97500 134.000
54.02000 121.000
54.06500 141.000
54.11000 126.000
54.15500 132.000
54.20000 137.000
54.24500 121.000
54.29000 128.000
54.33500 133.000
54.38000 120.000
54.42500 131.000
54.47000 105.000
54.51500 132.000
54.56000 124.000
54.60500 102.000
54.65000 130.000
54.69500 125.000
54.74000 121.000
54.78500 135.000
54.83000 103.000
54.87500 116.000
54.92000 117.000
54.96500 111.000
55.01000 133.000
55.05500 101.000
55.10000 136.000
55.14500 102.000
55.19000 121.000
55.23500 100.000
55.28000 118.000
55.32500 122.000
55.37000 111.000
55.41500 106.000
55.46000 129.000
55.50500 112.000
55.55000 106.000
55.59500 114.000
55.64000 106.000
55.68500 106.000
55.73000 107.000
55.77500 114.000
55.82000 107.000
55.86500 105.000
55.91000 116.000
55.95500 111.000
56.00000 101.000
56.04500 101.000
56.09000 111.000
56.13500 117.000
56.18000 111.000
56.22500 112.000
56.27000 103.000
56.31500 104.000
56.36000 104.000
56.40500 106.000
56.45000 107.000
56.49500 118.000
56.54000 115.000
56.58500 111.000
56.63000 112.000
56.67500 106.000
56.72000 106.000
56.76500 113.000
56.81000 123.000
56.85500 119.000
56.90000 117.000
56.94500 123.000
56.99000 114.000
57.03500 116.000
57.08000 102.000
57.12500 118.000
57.17000 103.000
57.21500 100.000
57.26000 106.000
57.30500 118.000
57.35000 126.000
57.39500 117.000
57.44000 99.000
57.48500 125.000
57.53000 129.000
57.57500 105.000
57.62000 124.000
57.66500 113.000
57.71000 115.000
57.75500 110.000
57.80000 126.000
57.84500 135.000
57.89000 122.000
57.93500 128.000
57.98000 133.000
58.02500 121.000
58.07000 124.000
58.11500 120.000
58.16000 117.000
58.20500 117.000
58.25000 130.000
58.29500 141.000
58.34000 125.000
58.38500 123.000
58.43000 138.000
58.47500 134.000
58.52000 134.000
58.56500 131.000
58.61000 153.000
58.65500 146.000
58.70000 147.000
58.74500 146.000
58.79000 142.000
58.83500 133.000
58.88000 139.000
58.92500 171.000
58.97000 170.000
59.01500 138.000
59.06000 139.000
59.10500 131.000
59.15000 144.000
59.19500 121.000
59.24000 139.000
59.28500 131.000
59.33000 129.000
59.37500 116.000
59.42000 106.000
59.46500 130.000
59.51000 115.000
59.55500 113.000
59.60000 125.000
59.64500 125.000
59.69000 103.000
59.73500 125.000
59.78000 119.000
59.82500 111.000
59.87000 114.000
59.91500 117.000
59.96000 121.000
60.00500 100.000
60.05000 117.000
60.09500 127.000
60.14000 105.000
60.18500 109.000
60.23000 112.000
60.27500 106.000
60.32000 115.000
60.36500 115.000
60.41000 99.000
60.45500 102.000
60.50000 109.000
60.54500 116.000
60.59000 118.000
60.63500 108.000
60.68000 83.000
60.72500 128.000
60.77000 117.000
60.81500 110.000
60.86000 108.000
60.90500 116.000
60.95000 97.000
60.99500 107.000
61.04000 104.000
61.08500 100.000
61.13000 104.000
61.17500 102.000
61.22000 107.000
61.26500 92.000
61.31000 99.000
61.35500 127.000
61.40000 106.000
61.44500 102.000
61.49000 113.000
61.53500 97.000
61.58000 98.000
61.62500 99.000
61.67000 91.000
61.71500 99.000
61.76000 95.000
61.80500 95.000
61.85000 90.000
61.89500 92.000
61.94000 108.000
61.98500 99.000