File: ISoD/xrd_data/HSC081_kurzgemessen.xy
2.00000 0.000
2.04500 2.000
2.09000 4.000
2.13500 2.000
2.18000 1.000
2.22500 1.000
2.27000 1.000
2.31500 5.000
2.36000 2.000
2.40500 1.000
2.45000 2.000
2.49500 0.000
2.54000 2.000
2.58500 0.000
2.63000 0.000
2.67500 3.000
2.72000 2.000
2.76500 1.000
2.81000 0.000
2.85500 2.000
2.90000 3.000
2.94500 2.000
2.99000 1.000
3.03500 2.000
3.08000 2.000
3.12500 1.000
3.17000 5.000
3.21500 11.000
3.26000 25.000
3.30500 32.000
3.35000 48.000
3.39500 45.000
3.44000 49.000
3.48500 47.000
3.53000 49.000
3.57500 49.000
3.62000 63.000
3.66500 65.000
3.71000 69.000
3.75500 50.000
3.80000 61.000
3.84500 60.000
3.89000 55.000
3.93500 81.000
3.98000 65.000
4.02500 76.000
4.07000 74.000
4.11500 71.000
4.16000 74.000
4.20500 67.000
4.25000 73.000
4.29500 78.000
4.34000 89.000
4.38500 88.000
4.43000 73.000
4.47500 76.000
4.52000 72.000
4.56500 95.000
4.61000 86.000
4.65500 95.000
4.70000 85.000
4.74500 92.000
4.79000 82.000
4.83500 95.000
4.88000 93.000
4.92500 92.000
4.97000 97.000
5.01500 84.000
5.06000 106.000
5.10500 98.000
5.15000 99.000
5.19500 111.000
5.24000 101.000
5.28500 104.000
5.33000 97.000
5.37500 111.000
5.42000 107.000
5.46500 104.000
5.51000 105.000
5.55500 114.000
5.60000 118.000
5.64500 119.000
5.69000 125.000
5.73500 103.000
5.78000 122.000
5.82500 115.000
5.87000 112.000
5.91500 112.000
5.96000 122.000
6.00500 104.000
6.05000 104.000
6.09500 126.000
6.14000 128.000
6.18500 135.000
6.23000 108.000
6.27500 116.000
6.32000 105.000
6.36500 108.000
6.41000 123.000
6.45500 121.000
6.50000 124.000
6.54500 116.000
6.59000 144.000
6.63500 110.000
6.68000 117.000
6.72500 110.000
6.77000 130.000
6.81500 136.000
6.86000 104.000
6.90500 129.000
6.95000 134.000
6.99500 121.000
7.04000 152.000
7.08500 130.000
7.13000 133.000
7.17500 119.000
7.22000 124.000
7.26500 145.000
7.31000 150.000
7.35500 125.000
7.40000 120.000
7.44500 130.000
7.49000 132.000
7.53500 115.000
7.58000 127.000
7.62500 134.000
7.67000 131.000
7.71500 131.000
7.76000 136.000
7.80500 143.000
7.85000 139.000
7.89500 141.000
7.94000 145.000
7.98500 128.000
8.03000 146.000
8.07500 122.000
8.12000 115.000
8.16500 147.000
8.21000 132.000
8.25500 134.000
8.30000 137.000
8.34500 154.000
8.39000 140.000
8.43500 140.000
8.48000 141.000
8.52500 153.000
8.57000 134.000
8.61500 130.000
8.66000 135.000
8.70500 156.000
8.75000 125.000
8.79500 148.000
8.84000 138.000
8.88500 147.000
8.93000 150.000
8.97500 141.000
9.02000 146.000
9.06500 126.000
9.11000 132.000
9.15500 151.000
9.20000 126.000
9.24500 146.000
9.29000 144.000
9.33500 132.000
9.38000 142.000
9.42500 159.000
9.47000 148.000
9.51500 162.000
9.56000 141.000
9.60500 149.000
9.65000 142.000
9.69500 133.000
9.74000 141.000
9.78500 152.000
9.83000 141.000
9.87500 143.000
9.92000 143.000
9.96500 136.000
10.01000 151.000
10.05500 140.000
10.10000 162.000
10.14500 147.000
10.19000 147.000
10.23500 147.000
10.28000 141.000
10.32500 139.000
10.37000 133.000
10.41500 143.000
10.46000 157.000
10.50500 126.000
10.55000 153.000
10.59500 146.000
10.64000 149.000
10.68500 146.000
10.73000 144.000
10.77500 135.000
10.82000 154.000
10.86500 154.000
10.91000 151.000
10.95500 152.000
11.00000 143.000
11.04500 153.000
11.09000 149.000
11.13500 153.000
11.18000 153.000
11.22500 142.000
11.27000 134.000
11.31500 153.000
11.36000 142.000
11.40500 145.000
11.45000 160.000
11.49500 144.000
11.54000 132.000
11.58500 157.000
11.63000 131.000
11.67500 157.000
11.72000 155.000
11.76500 143.000
11.81000 138.000
11.85500 163.000
11.90000 146.000
11.94500 149.000
11.99000 151.000
12.03500 160.000
12.08000 152.000
12.12500 150.000
12.17000 141.000
12.21500 152.000
12.26000 129.000
12.30500 152.000
12.35000 153.000
12.39500 136.000
12.44000 154.000
12.48500 148.000
12.53000 156.000
12.57500 166.000
12.62000 170.000
12.66500 144.000
12.71000 179.000
12.75500 156.000
12.80000 156.000
12.84500 171.000
12.89000 183.000
12.93500 239.000
12.98000 278.000
13.02500 417.000
13.07000 597.000
13.11500 1158.000
13.16000 627.000
13.20500 197.000
13.25000 182.000
13.29500 152.000
13.34000 168.000
13.38500 167.000
13.43000 141.000
13.47500 144.000
13.52000 156.000
13.56500 156.000
13.61000 153.000
13.65500 164.000
13.70000 168.000
13.74500 148.000
13.79000 162.000
13.83500 167.000
13.88000 150.000
13.92500 162.000
13.97000 156.000
14.01500 145.000
14.06000 162.000
14.10500 146.000
14.15000 147.000
14.19500 190.000
14.24000 152.000
14.28500 162.000
14.33000 150.000
14.37500 149.000
14.42000 151.000
14.46500 164.000
14.51000 162.000
14.55500 187.000
14.60000 162.000
14.64500 171.000
14.69000 174.000
14.73500 217.000
14.78000 266.000
14.82500 551.000
14.87000 950.000
14.91500 798.000
14.96000 199.000
15.00500 161.000
15.05000 134.000
15.09500 165.000
15.14000 148.000
15.18500 157.000
15.23000 175.000
15.27500 153.000
15.32000 139.000
15.36500 162.000
15.41000 159.000
15.45500 143.000
15.50000 137.000
15.54500 155.000
15.59000 160.000
15.63500 140.000
15.68000 159.000
15.72500 161.000
15.77000 139.000
15.81500 157.000
15.86000 160.000
15.90500 160.000
15.95000 145.000
15.99500 141.000
16.04000 159.000
16.08500 167.000
16.13000 145.000
16.17500 153.000
16.22000 160.000
16.26500 159.000
16.31000 152.000
16.35500 151.000
16.40000 158.000
16.44500 161.000
16.49000 170.000
16.53500 169.000
16.58000 152.000
16.62500 162.000
16.67000 139.000
16.71500 166.000
16.76000 157.000
16.80500 161.000
16.85000 165.000
16.89500 157.000
16.94000 151.000
16.98500 146.000
17.03000 170.000
17.07500 166.000
17.12000 160.000
17.16500 154.000
17.21000 163.000
17.25500 165.000
17.30000 208.000
17.34500 283.000
17.39000 397.000
17.43500 805.000
17.48000 1278.000
17.52500 420.000
17.57000 604.000
17.61500 1144.000
17.66000 2537.000
17.70500 4948.000
17.75000 1498.000
17.79500 671.000
17.84000 1079.000
17.88500 2643.000
17.93000 1133.000
17.97500 285.000
18.02000 219.000
18.06500 249.000
18.11000 220.000
18.15500 188.000
18.20000 152.000
18.24500 144.000
18.29000 162.000
18.33500 178.000
18.38000 160.000
18.42500 151.000
18.47000 153.000
18.51500 164.000
18.56000 167.000
18.60500 169.000
18.65000 164.000
18.69500 170.000
18.74000 152.000
18.78500 160.000
18.83000 161.000
18.87500 159.000
18.92000 159.000
18.96500 158.000
19.01000 157.000
19.05500 165.000
19.10000 166.000
19.14500 158.000
19.19000 177.000
19.23500 157.000
19.28000 150.000
19.32500 161.000
19.37000 168.000
19.41500 185.000
19.46000 156.000
19.50500 171.000
19.55000 164.000
19.59500 152.000
19.64000 143.000
19.68500 177.000
19.73000 169.000
19.77500 170.000
19.82000 181.000
19.86500 167.000
19.91000 156.000
19.95500 174.000
20.00000 170.000
20.04500 174.000
20.09000 164.000
20.13500 185.000
20.18000 173.000
20.22500 189.000
20.27000 169.000
20.31500 165.000
20.36000 176.000
20.40500 183.000
20.45000 166.000
20.49500 180.000
20.54000 170.000
20.58500 180.000
20.63000 167.000
20.67500 154.000
20.72000 161.000
20.76500 174.000
20.81000 181.000
20.85500 172.000
20.90000 170.000
20.94500 163.000
20.99000 169.000
21.03500 165.000
21.08000 168.000
21.12500 178.000
21.17000 173.000
21.21500 193.000
21.26000 187.000
21.30500 174.000
21.35000 194.000
21.39500 197.000
21.44000 256.000
21.48500 434.000
21.53000 513.000
21.57500 801.000
21.62000 2193.000
21.66500 4516.000
21.71000 1231.000
21.75500 351.000
21.80000 255.000
21.84500 239.000
21.89000 276.000
21.93500 354.000
21.98000 592.000
22.02500 1491.000
22.07000 2940.000
22.11500 1176.000
22.16000 317.000
22.20500 222.000
22.25000 214.000
22.29500 193.000
22.34000 199.000
22.38500 175.000
22.43000 178.000
22.47500 174.000
22.52000 183.000
22.56500 175.000
22.61000 182.000
22.65500 177.000
22.70000 173.000
22.74500 173.000
22.79000 175.000
22.83500 176.000
22.88000 189.000
22.92500 166.000
22.97000 172.000
23.01500 172.000
23.06000 179.000
23.10500 174.000
23.15000 160.000
23.19500 181.000
23.24000 169.000
23.28500 181.000
23.33000 181.000
23.37500 170.000
23.42000 181.000
23.46500 163.000
23.51000 186.000
23.55500 179.000
23.60000 178.000
23.64500 182.000
23.69000 185.000
23.73500 203.000
23.78000 208.000
23.82500 176.000
23.87000 177.000
23.91500 179.000
23.96000 179.000
24.00500 185.000
24.05000 183.000
24.09500 149.000
24.14000 181.000
24.18500 171.000
24.23000 186.000
24.27500 187.000
24.32000 157.000
24.36500 193.000
24.41000 155.000
24.45500 161.000
24.50000 175.000
24.54500 173.000
24.59000 161.000
24.63500 171.000
24.68000 172.000
24.72500 181.000
24.77000 196.000
24.81500 155.000
24.86000 181.000
24.90500 173.000
24.95000 162.000
24.99500 189.000
25.04000 187.000
25.08500 176.000
25.13000 189.000
25.17500 185.000
25.22000 171.000
25.26500 184.000
25.31000 194.000
25.35500 205.000
25.40000 259.000
25.44500 358.000
25.49000 490.000
25.53500 239.000
25.58000 207.000
25.62500 230.000
25.67000 411.000
25.71500 743.000
25.76000 2006.000
25.80500 2123.000
25.85000 483.000
25.89500 273.000
25.94000 260.000
25.98500 277.000
26.03000 418.000
26.07500 629.000
26.12000 1529.000
26.16500 4339.000
26.21000 5865.000
26.25500 1418.000
26.30000 508.000
26.34500 360.000
26.39000 409.000
26.43500 465.000
26.48000 281.000
26.52500 221.000
26.57000 222.000
26.61500 191.000
26.66000 173.000
26.70500 192.000
26.75000 186.000
26.79500 193.000
26.84000 192.000
26.88500 190.000
26.93000 212.000
26.97500 360.000
27.02000 770.000
27.06500 2151.000
27.11000 3136.000
27.15500 762.000
27.20000 435.000
27.24500 705.000
27.29000 414.000
27.33500 216.000
27.38000 178.000
27.42500 183.000
27.47000 188.000
27.51500 170.000
27.56000 161.000
27.60500 165.000
27.65000 175.000
27.69500 191.000
27.74000 165.000
27.78500 165.000
27.83000 153.000
27.87500 182.000
27.92000 162.000
27.96500 161.000
28.01000 215.000
28.05500 178.000
28.10000 198.000
28.14500 191.000
28.19000 167.000
28.23500 164.000
28.28000 154.000
28.32500 148.000
28.37000 200.000
28.41500 189.000
28.46000 215.000
28.50500 175.000
28.55000 186.000
28.59500 194.000
28.64000 234.000
28.68500 303.000
28.73000 575.000
28.77500 1267.000
28.82000 2469.000
28.86500 1537.000
28.91000 483.000
28.95500 273.000
29.00000 256.000
29.04500 265.000
29.09000 210.000
29.13500 177.000
29.18000 189.000
29.22500 180.000
29.27000 157.000
29.31500 176.000
29.36000 182.000
29.40500 196.000
29.45000 191.000
29.49500 181.000
29.54000 180.000
29.58500 220.000
29.63000 203.000
29.67500 314.000
29.72000 532.000
29.76500 1240.000
29.81000 2773.000
29.85500 1952.000
29.90000 566.000
29.94500 321.000
29.99000 216.000
30.03500 203.000
30.08000 187.000
30.12500 191.000
30.17000 177.000
30.21500 193.000
30.26000 211.000
30.30500 285.000
30.35000 326.000
30.39500 210.000
30.44000 182.000
30.48500 146.000
30.53000 150.000
30.57500 150.000
30.62000 167.000
30.66500 152.000
30.71000 135.000
30.75500 145.000
30.80000 152.000
30.84500 164.000
30.89000 151.000
30.93500 146.000
30.98000 142.000
31.02500 156.000
31.07000 149.000
31.11500 144.000
31.16000 145.000
31.20500 144.000
31.25000 148.000
31.29500 147.000
31.34000 133.000
31.38500 123.000
31.43000 138.000
31.47500 147.000
31.52000 147.000
31.56500 138.000
31.61000 145.000
31.65500 130.000
31.70000 128.000
31.74500 136.000
31.79000 137.000
31.83500 138.000
31.88000 118.000
31.92500 132.000
31.97000 136.000
32.01500 128.000
32.06000 137.000
32.10500 143.000
32.15000 128.000
32.19500 155.000
32.24000 145.000
32.28500 139.000
32.33000 122.000
32.37500 126.000
32.42000 139.000
32.46500 132.000
32.51000 140.000
32.55500 134.000
32.60000 137.000
32.64500 112.000
32.69000 127.000
32.73500 143.000
32.78000 118.000
32.82500 132.000
32.87000 120.000
32.91500 136.000
32.96000 135.000
33.00500 109.000
33.05000 130.000
33.09500 134.000
33.14000 123.000
33.18500 124.000
33.23000 142.000
33.27500 136.000
33.32000 184.000
33.36500 318.000
33.41000 409.000
33.45500 268.000
33.50000 171.000
33.54500 122.000
33.59000 143.000
33.63500 122.000
33.68000 156.000
33.72500 155.000
33.77000 201.000
33.81500 284.000
33.86000 329.000
33.90500 211.000
33.95000 149.000
33.99500 110.000
34.04000 126.000
34.08500 142.000
34.13000 125.000
34.17500 138.000
34.22000 130.000
34.26500 150.000
34.31000 188.000
34.35500 250.000
34.40000 219.000
34.44500 157.000
34.49000 134.000
34.53500 108.000
34.58000 124.000
34.62500 119.000
34.67000 126.000
34.71500 118.000
34.76000 128.000
34.80500 127.000
34.85000 114.000
34.89500 111.000
34.94000 140.000
34.98500 196.000
35.03000 323.000
35.07500 419.000
35.12000 200.000
35.16500 135.000
35.21000 105.000
35.25500 135.000
35.30000 108.000
35.34500 128.000
35.39000 104.000
35.43500 132.000
35.48000 130.000
35.52500 123.000
35.57000 120.000
35.61500 124.000
35.66000 139.000
35.70500 150.000
35.75000 202.000
35.79500 401.000
35.84000 699.000
35.88500 462.000
35.93000 274.000
35.97500 211.000
36.02000 166.000
36.06500 153.000
36.11000 154.000
36.15500 204.000
36.20000 450.000
36.24500 644.000
36.29000 339.000
36.33500 184.000
36.38000 179.000
36.42500 247.000
36.47000 575.000
36.51500 847.000
36.56000 249.000
36.60500 167.000
36.65000 184.000
36.69500 159.000
36.74000 148.000
36.78500 175.000
36.83000 155.000
36.87500 111.000
36.92000 122.000
36.96500 115.000
37.01000 147.000
37.05500 180.000
37.10000 397.000
37.14500 844.000
37.19000 792.000
37.23500 279.000
37.28000 136.000
37.32500 130.000
37.37000 128.000
37.41500 123.000
37.46000 117.000
37.50500 107.000
37.55000 122.000
37.59500 159.000
37.64000 211.000
37.68500 220.000
37.73000 139.000
37.77500 118.000
37.82000 107.000
37.86500 99.000
37.91000 102.000
37.95500 113.000
38.00000 108.000
38.04500 106.000
38.09000 108.000
38.13500 124.000
38.18000 149.000
38.22500 204.000
38.27000 368.000
38.31500 784.000
38.36000 1396.000
38.40500 651.000
38.45000 202.000
38.49500 151.000
38.54000 128.000
38.58500 159.000
38.63000 196.000
38.67500 155.000
38.72000 129.000
38.76500 101.000
38.81000 101.000
38.85500 96.000
38.90000 88.000
38.94500 110.000
38.99000 91.000
39.03500 89.000
39.08000 107.000
39.12500 101.000
39.17000 95.000
39.21500 95.000
39.26000 101.000
39.30500 106.000
39.35000 92.000
39.39500 89.000
39.44000 108.000
39.48500 86.000
39.53000 97.000
39.57500 148.000
39.62000 130.000
39.66500 97.000
39.71000 87.000
39.75500 80.000
39.80000 93.000
39.84500 111.000
39.89000 89.000
39.93500 97.000
39.98000 84.000
40.02500 97.000
40.07000 108.000
40.11500 120.000
40.16000 109.000
40.20500 96.000
40.25000 89.000
40.29500 95.000
40.34000 87.000
40.38500 82.000
40.43000 99.000
40.47500 86.000
40.52000 101.000
40.56500 146.000
40.61000 119.000
40.65500 108.000
40.70000 83.000
40.74500 94.000
40.79000 109.000
40.83500 87.000
40.88000 107.000
40.92500 147.000
40.97000 268.000
41.01500 291.000
41.06000 140.000
41.10500 112.000
41.15000 107.000
41.19500 96.000
41.24000 96.000
41.28500 86.000
41.33000 86.000
41.37500 94.000
41.42000 77.000
41.46500 83.000
41.51000 93.000
41.55500 97.000
41.60000 87.000
41.64500 99.000
41.69000 122.000
41.73500 150.000
41.78000 245.000
41.82500 185.000
41.87000 127.000
41.91500 122.000
41.96000 137.000
42.00500 113.000
42.05000 96.000
42.09500 92.000
42.14000 90.000
42.18500 86.000
42.23000 82.000
42.27500 88.000
42.32000 90.000
42.36500 79.000
42.41000 90.000
42.45500 114.000
42.50000 164.000
42.54500 159.000
42.59000 112.000
42.63500 98.000
42.68000 92.000
42.72500 96.000
42.77000 103.000
42.81500 88.000
42.86000 81.000
42.90500 72.000
42.95000 99.000
42.99500 97.000
43.04000 87.000
43.08500 95.000
43.13000 84.000
43.17500 101.000
43.22000 102.000
43.26500 92.000
43.31000 84.000
43.35500 78.000
43.40000 74.000
43.44500 76.000
43.49000 90.000
43.53500 87.000
43.58000 91.000
43.62500 96.000
43.67000 107.000
43.71500 89.000
43.76000 128.000
43.80500 130.000
43.85000 113.000
43.89500 107.000
43.94000 131.000
43.98500 213.000
44.03000 168.000
44.07500 109.000
44.12000 118.000
44.16500 108.000
44.21000 114.000
44.25500 82.000
44.30000 94.000
44.34500 85.000
44.39000 84.000
44.43500 75.000
44.48000 115.000
44.52500 105.000
44.57000 114.000
44.61500 126.000
44.66000 105.000
44.70500 102.000
44.75000 135.000
44.79500 244.000
44.84000 436.000
44.88500 312.000
44.93000 161.000
44.97500 128.000
45.02000 139.000
45.06500 121.000
45.11000 111.000
45.15500 106.000
45.20000 99.000
45.24500 112.000
45.29000 100.000
45.33500 93.000
45.38000 91.000
45.42500 105.000
45.47000 125.000
45.51500 174.000
45.56000 120.000
45.60500 127.000
45.65000 101.000
45.69500 148.000
45.74000 146.000
45.78500 130.000
45.83000 108.000
45.87500 97.000
45.92000 92.000
45.96500 85.000
46.01000 89.000
46.05500 93.000
46.10000 92.000
46.14500 89.000
46.19000 81.000
46.23500 108.000
46.28000 113.000
46.32500 114.000
46.37000 94.000
46.41500 77.000
46.46000 82.000
46.50500 71.000
46.55000 81.000
46.59500 83.000
46.64000 96.000
46.68500 88.000
46.73000 85.000
46.77500 79.000
46.82000 89.000
46.86500 89.000
46.91000 110.000
46.95500 126.000
47.00000 216.000
47.04500 288.000
47.09000 217.000
47.13500 121.000
47.18000 97.000
47.22500 100.000
47.27000 85.000
47.31500 95.000
47.36000 91.000
47.40500 112.000
47.45000 159.000
47.49500 380.000
47.54000 839.000
47.58500 768.000
47.63000 294.000
47.67500 126.000
47.72000 116.000
47.76500 97.000
47.81000 104.000
47.85500 103.000
47.90000 86.000
47.94500 91.000
47.99000 82.000
48.03500 87.000
48.08000 99.000
48.12500 96.000
48.17000 88.000
48.21500 133.000
48.26000 177.000
48.30500 338.000
48.35000 260.000
48.39500 146.000
48.44000 118.000
48.48500 88.000
48.53000 92.000
48.57500 95.000
48.62000 96.000
48.66500 86.000
48.71000 78.000
48.75500 78.000
48.80000 73.000
48.84500 79.000
48.89000 72.000
48.93500 70.000
48.98000 71.000
49.02500 88.000
49.07000 83.000
49.11500 82.000
49.16000 81.000
49.20500 93.000
49.25000 92.000
49.29500 76.000
49.34000 84.000
49.38500 85.000
49.43000 78.000
49.47500 77.000
49.52000 83.000
49.56500 92.000
49.61000 95.000
49.65500 107.000
49.70000 71.000
49.74500 76.000
49.79000 83.000
49.83500 93.000
49.88000 72.000
49.92500 68.000
49.97000 83.000
50.01500 86.000
50.06000 95.000
50.10500 120.000
50.15000 134.000
50.19500 129.000
50.24000 199.000
50.28500 270.000
50.33000 245.000
50.37500 190.000
50.42000 161.000
50.46500 148.000
50.51000 116.000
50.55500 100.000
50.60000 83.000
50.64500 96.000
50.69000 94.000
50.73500 78.000
50.78000 75.000
50.82500 88.000
50.87000 88.000
50.91500 79.000
50.96000 76.000
51.00500 84.000
51.05000 89.000
51.09500 79.000
51.14000 94.000
51.18500 92.000
51.23000 103.000
51.27500 84.000
51.32000 75.000
51.36500 77.000
51.41000 88.000
51.45500 90.000
51.50000 88.000
51.54500 91.000
51.59000 96.000
51.63500 123.000
51.68000 145.000
51.72500 132.000
51.77000 104.000
51.81500 120.000
51.86000 124.000
51.90500 106.000
51.95000 88.000
51.99500 88.000
52.04000 99.000
52.08500 102.000
52.13000 139.000
52.17500 137.000
52.22000 183.000
52.26500 231.000
52.31000 172.000
52.35500 112.000
52.40000 95.000
52.44500 83.000
52.49000 88.000
52.53500 83.000
52.58000 101.000
52.62500 104.000
52.67000 120.000
52.71500 135.000
52.76000 109.000
52.80500 127.000
52.85000 165.000
52.89500 253.000
52.94000 420.000
52.98500 431.000
53.03000 349.000
53.07500 169.000
53.12000 111.000
53.16500 96.000
53.21000 83.000
53.25500 84.000
53.30000 74.000
53.34500 86.000
53.39000 86.000
53.43500 80.000
53.48000 82.000
53.52500 91.000
53.57000 87.000
53.61500 114.000
53.66000 119.000
53.70500 87.000
53.75000 84.000
53.79500 96.000
53.84000 93.000
53.88500 85.000
53.93000 81.000
53.97500 93.000
54.02000 92.000
54.06500 97.000
54.11000 97.000
54.15500 116.000
54.20000 130.000
54.24500 104.000
54.29000 104.000
54.33500 107.000
54.38000 113.000
54.42500 118.000
54.47000 176.000
54.51500 237.000
54.56000 167.000
54.60500 118.000
54.65000 97.000
54.69500 87.000
54.74000 111.000
54.78500 175.000
54.83000 243.000
54.87500 212.000
54.92000 138.000
54.96500 151.000
55.01000 127.000
55.05500 123.000
55.10000 120.000
55.14500 194.000
55.19000 261.000
55.23500 222.000
55.28000 150.000
55.32500 185.000
55.37000 236.000
55.41500 289.000
55.46000 210.000
55.50500 155.000
55.55000 218.000
55.59500 320.000
55.64000 384.000
55.68500 321.000
55.73000 205.000
55.77500 125.000
55.82000 149.000
55.86500 183.000
55.91000 155.000
55.95500 117.000
56.00000 94.000
56.04500 88.000
56.09000 108.000
56.13500 152.000
56.18000 246.000
56.22500 395.000
56.27000 258.000
56.31500 109.000
56.36000 94.000
56.40500 85.000
56.45000 83.000
56.49500 82.000
56.54000 88.000
56.58500 100.000
56.63000 116.000
56.67500 169.000
56.72000 170.000
56.76500 112.000
56.81000 95.000
56.85500 87.000
56.90000 80.000
56.94500 97.000
56.99000 88.000
57.03500 101.000
57.08000 115.000
57.12500 132.000
57.17000 183.000
57.21500 160.000
57.26000 127.000
57.30500 96.000
57.35000 91.000
57.39500 105.000
57.44000 87.000
57.48500 82.000
57.53000 85.000
57.57500 92.000
57.62000 84.000
57.66500 95.000
57.71000 86.000
57.75500 108.000
57.80000 107.000
57.84500 96.000
57.89000 106.000
57.93500 88.000
57.98000 81.000
58.02500 86.000
58.07000 81.000
58.11500 70.000
58.16000 79.000
58.20500 71.000
58.25000 83.000
58.29500 66.000
58.34000 77.000
58.38500 90.000
58.43000 105.000
58.47500 69.000
58.52000 73.000
58.56500 75.000
58.61000 78.000
58.65500 81.000
58.70000 63.000
58.74500 72.000
58.79000 88.000
58.83500 91.000
58.88000 100.000
58.92500 103.000
58.97000 80.000
59.01500 81.000
59.06000 89.000
59.10500 82.000
59.15000 73.000
59.19500 78.000
59.24000 92.000
59.28500 85.000
59.33000 83.000
59.37500 75.000
59.42000 70.000
59.46500 76.000
59.51000 56.000
59.55500 67.000
59.60000 67.000
59.64500 81.000
59.69000 68.000
59.73500 75.000
59.78000 66.000
59.82500 78.000
59.87000 78.000
59.91500 83.000
59.96000 105.000
60.00500 107.000
60.05000 91.000
60.09500 78.000
60.14000 67.000
60.18500 86.000
60.23000 78.000
60.27500 69.000
60.32000 80.000
60.36500 59.000
60.41000 82.000
60.45500 83.000
60.50000 83.000
60.54500 139.000
60.59000 136.000
60.63500 104.000
60.68000 74.000
60.72500 82.000
60.77000 72.000
60.81500 77.000
60.86000 68.000
60.90500 82.000
60.95000 67.000
60.99500 76.000
61.04000 66.000
61.08500 66.000
61.13000 65.000
61.17500 71.000
61.22000 71.000
61.26500 75.000
61.31000 65.000
61.35500 74.000
61.40000 74.000
61.44500 68.000
61.49000 71.000
61.53500 76.000
61.58000 69.000
61.62500 72.000
61.67000 73.000
61.71500 84.000
61.76000 67.000
61.80500 68.000
61.85000 84.000
61.89500 85.000
61.94000 104.000
61.98500 105.000