File: ISoD/xrd_data/HSC034.xy
2.00000 629.000
2.04500 585.000
2.09000 558.000
2.13500 537.000
2.18000 556.000
2.22500 514.000
2.27000 495.000
2.31500 504.000
2.36000 444.000
2.40500 437.000
2.45000 429.000
2.49500 430.000
2.54000 413.000
2.58500 416.000
2.63000 403.000
2.67500 405.000
2.72000 374.000
2.76500 363.000
2.81000 363.000
2.85500 359.000
2.90000 357.000
2.94500 365.000
2.99000 363.000
3.03500 350.000
3.08000 326.000
3.12500 365.000
3.17000 335.000
3.21500 335.000
3.26000 329.000
3.30500 350.000
3.35000 354.000
3.39500 364.000
3.44000 321.000
3.48500 328.000
3.53000 318.000
3.57500 298.000
3.62000 323.000
3.66500 285.000
3.71000 307.000
3.75500 319.000
3.80000 325.000
3.84500 315.000
3.89000 312.000
3.93500 319.000
3.98000 287.000
4.02500 319.000
4.07000 313.000
4.11500 303.000
4.16000 297.000
4.20500 300.000
4.25000 300.000
4.29500 307.000
4.34000 312.000
4.38500 289.000
4.43000 320.000
4.47500 289.000
4.52000 307.000
4.56500 310.000
4.61000 314.000
4.65500 295.000
4.70000 257.000
4.74500 315.000
4.79000 300.000
4.83500 297.000
4.88000 313.000
4.92500 297.000
4.97000 288.000
5.01500 317.000
5.06000 280.000
5.10500 310.000
5.15000 287.000
5.19500 322.000
5.24000 315.000
5.28500 298.000
5.33000 299.000
5.37500 292.000
5.42000 297.000
5.46500 296.000
5.51000 302.000
5.55500 279.000
5.60000 325.000
5.64500 305.000
5.69000 316.000
5.73500 339.000
5.78000 299.000
5.82500 301.000
5.87000 303.000
5.91500 308.000
5.96000 300.000
6.00500 304.000
6.05000 289.000
6.09500 313.000
6.14000 304.000
6.18500 297.000
6.23000 305.000
6.27500 307.000
6.32000 292.000
6.36500 309.000
6.41000 324.000
6.45500 317.000
6.50000 314.000
6.54500 324.000
6.59000 298.000
6.63500 323.000
6.68000 350.000
6.72500 303.000
6.77000 315.000
6.81500 311.000
6.86000 335.000
6.90500 313.000
6.95000 307.000
6.99500 320.000
7.04000 318.000
7.08500 337.000
7.13000 335.000
7.17500 343.000
7.22000 335.000
7.26500 313.000
7.31000 337.000
7.35500 345.000
7.40000 327.000
7.44500 344.000
7.49000 341.000
7.53500 336.000
7.58000 320.000
7.62500 340.000
7.67000 332.000
7.71500 333.000
7.76000 345.000
7.80500 332.000
7.85000 326.000
7.89500 320.000
7.94000 340.000
7.98500 356.000
8.03000 334.000
8.07500 319.000
8.12000 350.000
8.16500 353.000
8.21000 345.000
8.25500 331.000
8.30000 341.000
8.34500 380.000
8.39000 381.000
8.43500 350.000
8.48000 364.000
8.52500 381.000
8.57000 373.000
8.61500 363.000
8.66000 344.000
8.70500 338.000
8.75000 387.000
8.79500 351.000
8.84000 359.000
8.88500 386.000
8.93000 337.000
8.97500 343.000
9.02000 325.000
9.06500 362.000
9.11000 372.000
9.15500 335.000
9.20000 348.000
9.24500 362.000
9.29000 331.000
9.33500 344.000
9.38000 358.000
9.42500 365.000
9.47000 344.000
9.51500 343.000
9.56000 351.000
9.60500 333.000
9.65000 357.000
9.69500 359.000
9.74000 389.000
9.78500 342.000
9.83000 374.000
9.87500 353.000
9.92000 351.000
9.96500 386.000
10.01000 377.000
10.05500 439.000
10.10000 495.000
10.14500 491.000
10.19000 427.000
10.23500 409.000
10.28000 366.000
10.32500 384.000
10.37000 396.000
10.41500 391.000
10.46000 386.000
10.50500 422.000
10.55000 439.000
10.59500 504.000
10.64000 569.000
10.68500 809.000
10.73000 878.000
10.77500 561.000
10.82000 472.000
10.86500 452.000
10.91000 440.000
10.95500 450.000
11.00000 480.000
11.04500 419.000
11.09000 440.000
11.13500 486.000
11.18000 496.000
11.22500 471.000
11.27000 469.000
11.31500 476.000
11.36000 470.000
11.40500 482.000
11.45000 477.000
11.49500 493.000
11.54000 523.000
11.58500 487.000
11.63000 461.000
11.67500 471.000
11.72000 458.000
11.76500 455.000
11.81000 457.000
11.85500 454.000
11.90000 527.000
11.94500 568.000
11.99000 719.000
12.03500 937.000
12.08000 889.000
12.12500 530.000
12.17000 389.000
12.21500 355.000
12.26000 337.000
12.30500 362.000
12.35000 311.000
12.39500 329.000
12.44000 336.000
12.48500 342.000
12.53000 346.000
12.57500 349.000
12.62000 323.000
12.66500 424.000
12.71000 488.000
12.75500 477.000
12.80000 406.000
12.84500 395.000
12.89000 360.000
12.93500 326.000
12.98000 321.000
13.02500 320.000
13.07000 341.000
13.11500 313.000
13.16000 343.000
13.20500 314.000
13.25000 298.000
13.29500 323.000
13.34000 307.000
13.38500 325.000
13.43000 315.000
13.47500 300.000
13.52000 314.000
13.56500 306.000
13.61000 309.000
13.65500 277.000
13.70000 306.000
13.74500 288.000
13.79000 319.000
13.83500 293.000
13.88000 302.000
13.92500 288.000
13.97000 304.000
14.01500 305.000
14.06000 295.000
14.10500 276.000
14.15000 305.000
14.19500 312.000
14.24000 298.000
14.28500 308.000
14.33000 291.000
14.37500 296.000
14.42000 299.000
14.46500 320.000
14.51000 328.000
14.55500 315.000
14.60000 306.000
14.64500 280.000
14.69000 299.000
14.73500 307.000
14.78000 281.000
14.82500 288.000
14.87000 285.000
14.91500 285.000
14.96000 297.000
15.00500 292.000
15.05000 295.000
15.09500 293.000
15.14000 282.000
15.18500 252.000
15.23000 303.000
15.27500 275.000
15.32000 280.000
15.36500 283.000
15.41000 287.000
15.45500 302.000
15.50000 251.000
15.54500 309.000
15.59000 297.000
15.63500 276.000
15.68000 276.000
15.72500 283.000
15.77000 289.000
15.81500 274.000
15.86000 299.000
15.90500 313.000
15.95000 302.000
15.99500 288.000
16.04000 283.000
16.08500 297.000
16.13000 295.000
16.17500 310.000
16.22000 313.000
16.26500 332.000
16.31000 340.000
16.35500 342.000
16.40000 324.000
16.44500 292.000
16.49000 317.000
16.53500 306.000
16.58000 300.000
16.62500 305.000
16.67000 294.000
16.71500 288.000
16.76000 282.000
16.80500 299.000
16.85000 275.000
16.89500 291.000
16.94000 290.000
16.98500 312.000
17.03000 317.000
17.07500 300.000
17.12000 304.000
17.16500 318.000
17.21000 331.000
17.25500 343.000
17.30000 340.000
17.34500 347.000
17.39000 308.000
17.43500 313.000
17.48000 286.000
17.52500 297.000
17.57000 317.000
17.61500 290.000
17.66000 298.000
17.70500 319.000
17.75000 335.000
17.79500 304.000
17.84000 318.000
17.88500 288.000
17.93000 313.000
17.97500 312.000
18.02000 277.000
18.06500 333.000
18.11000 332.000
18.15500 312.000
18.20000 308.000
18.24500 311.000
18.29000 315.000
18.33500 328.000
18.38000 285.000
18.42500 361.000
18.47000 321.000
18.51500 313.000
18.56000 326.000
18.60500 279.000
18.65000 312.000
18.69500 346.000
18.74000 318.000
18.78500 327.000
18.83000 322.000
18.87500 341.000
18.92000 286.000
18.96500 324.000
19.01000 300.000
19.05500 328.000
19.10000 338.000
19.14500 332.000
19.19000 335.000
19.23500 329.000
19.28000 316.000
19.32500 315.000
19.37000 333.000
19.41500 313.000
19.46000 312.000
19.50500 322.000
19.55000 322.000
19.59500 324.000
19.64000 330.000
19.68500 332.000
19.73000 346.000
19.77500 341.000
19.82000 371.000
19.86500 381.000
19.91000 368.000
19.95500 397.000
20.00000 336.000
20.04500 352.000
20.09000 374.000
20.13500 369.000
20.18000 352.000
20.22500 338.000
20.27000 345.000
20.31500 327.000
20.36000 345.000
20.40500 360.000
20.45000 357.000
20.49500 361.000
20.54000 348.000
20.58500 342.000
20.63000 345.000
20.67500 387.000
20.72000 368.000
20.76500 353.000
20.81000 358.000
20.85500 391.000
20.90000 303.000
20.94500 378.000
20.99000 347.000
21.03500 371.000
21.08000 364.000
21.12500 385.000
21.17000 392.000
21.21500 395.000
21.26000 390.000
21.30500 362.000
21.35000 382.000
21.39500 409.000
21.44000 395.000
21.48500 385.000
21.53000 384.000
21.57500 380.000
21.62000 355.000
21.66500 392.000
21.71000 402.000
21.75500 369.000
21.80000 357.000
21.84500 416.000
21.89000 384.000
21.93500 382.000
21.98000 388.000
22.02500 373.000
22.07000 373.000
22.11500 393.000
22.16000 378.000
22.20500 371.000
22.25000 374.000
22.29500 403.000
22.34000 409.000
22.38500 385.000
22.43000 426.000
22.47500 400.000
22.52000 427.000
22.56500 436.000
22.61000 469.000
22.65500 463.000
22.70000 496.000
22.74500 437.000
22.79000 432.000
22.83500 456.000
22.88000 456.000
22.92500 412.000
22.97000 448.000
23.01500 441.000
23.06000 432.000
23.10500 426.000
23.15000 466.000
23.19500 452.000
23.24000 457.000
23.28500 431.000
23.33000 414.000
23.37500 430.000
23.42000 413.000
23.46500 443.000
23.51000 450.000
23.55500 444.000
23.60000 439.000
23.64500 423.000
23.69000 443.000
23.73500 427.000
23.78000 439.000
23.82500 437.000
23.87000 458.000
23.91500 455.000
23.96000 465.000
24.00500 424.000
24.05000 415.000
24.09500 432.000
24.14000 442.000
24.18500 458.000
24.23000 487.000
24.27500 476.000
24.32000 445.000
24.36500 471.000
24.41000 462.000
24.45500 476.000
24.50000 462.000
24.54500 503.000
24.59000 467.000
24.63500 487.000
24.68000 511.000
24.72500 509.000
24.77000 519.000
24.81500 560.000
24.86000 542.000
24.90500 601.000
24.95000 690.000
24.99500 749.000
25.04000 732.000
25.08500 678.000
25.13000 576.000
25.17500 611.000
25.22000 596.000
25.26500 578.000
25.31000 616.000
25.35500 632.000
25.40000 623.000
25.44500 674.000
25.49000 698.000
25.53500 682.000
25.58000 719.000
25.62500 685.000
25.67000 622.000
25.71500 619.000
25.76000 636.000
25.80500 630.000
25.85000 605.000
25.89500 603.000
25.94000 629.000
25.98500 602.000
26.03000 613.000
26.07500 611.000
26.12000 590.000
26.16500 610.000
26.21000 580.000
26.25500 606.000
26.30000 616.000
26.34500 606.000
26.39000 590.000
26.43500 597.000
26.48000 599.000
26.52500 602.000
26.57000 692.000
26.61500 687.000
26.66000 671.000
26.70500 694.000
26.75000 687.000
26.79500 678.000
26.84000 723.000
26.88500 781.000
26.93000 810.000
26.97500 906.000
27.02000 1053.000
27.06500 1318.000
27.11000 1733.000
27.15500 1865.000
27.20000 1518.000
27.24500 1133.000
27.29000 972.000
27.33500 830.000
27.38000 731.000
27.42500 702.000
27.47000 678.000
27.51500 580.000
27.56000 597.000
27.60500 571.000
27.65000 551.000
27.69500 541.000
27.74000 554.000
27.78500 505.000
27.83000 479.000
27.87500 473.000
27.92000 469.000
27.96500 416.000
28.01000 464.000
28.05500 439.000
28.10000 440.000
28.14500 428.000
28.19000 398.000
28.23500 421.000
28.28000 397.000
28.32500 408.000
28.37000 452.000
28.41500 399.000
28.46000 380.000
28.50500 386.000
28.55000 395.000
28.59500 366.000
28.64000 388.000
28.68500 384.000
28.73000 381.000
28.77500 404.000
28.82000 378.000
28.86500 365.000
28.91000 365.000
28.95500 361.000
29.00000 333.000
29.04500 331.000
29.09000 353.000
29.13500 330.000
29.18000 365.000
29.22500 377.000
29.27000 329.000
29.31500 344.000
29.36000 356.000
29.40500 370.000
29.45000 332.000
29.49500 305.000
29.54000 343.000
29.58500 338.000
29.63000 363.000
29.67500 295.000
29.72000 341.000
29.76500 348.000
29.81000 356.000
29.85500 368.000
29.90000 351.000
29.94500 388.000
29.99000 346.000
30.03500 341.000
30.08000 360.000
30.12500 364.000
30.17000 349.000
30.21500 390.000
30.26000 399.000
30.30500 386.000
30.35000 433.000
30.39500 495.000
30.44000 512.000
30.48500 459.000
30.53000 413.000
30.57500 339.000
30.62000 350.000
30.66500 323.000
30.71000 337.000
30.75500 317.000
30.80000 340.000
30.84500 302.000
30.89000 319.000
30.93500 328.000
30.98000 313.000
31.02500 337.000
31.07000 330.000
31.11500 323.000
31.16000 330.000
31.20500 290.000
31.25000 294.000
31.29500 304.000
31.34000 301.000
31.38500 305.000
31.43000 287.000
31.47500 312.000
31.52000 278.000
31.56500 299.000
31.61000 299.000
31.65500 296.000
31.70000 267.000
31.74500 279.000
31.79000 260.000
31.83500 276.000
31.88000 322.000
31.92500 282.000
31.97000 292.000
32.01500 259.000
32.06000 264.000
32.10500 253.000
32.15000 270.000
32.19500 272.000
32.24000 263.000
32.28500 274.000
32.33000 294.000
32.37500 258.000
32.42000 251.000
32.46500 258.000
32.51000 229.000
32.55500 274.000
32.60000 271.000
32.64500 234.000
32.69000 277.000
32.73500 268.000
32.78000 266.000
32.82500 276.000
32.87000 275.000
32.91500 252.000
32.96000 262.000
33.00500 258.000
33.05000 233.000
33.09500 275.000
33.14000 259.000
33.18500 261.000
33.23000 240.000
33.27500 239.000
33.32000 256.000
33.36500 268.000
33.41000 250.000
33.45500 267.000
33.50000 256.000
33.54500 260.000
33.59000 265.000
33.63500 254.000
33.68000 256.000
33.72500 235.000
33.77000 251.000
33.81500 225.000
33.86000 236.000
33.90500 265.000
33.95000 236.000
33.99500 235.000
34.04000 242.000
34.08500 262.000
34.13000 239.000
34.17500 235.000
34.22000 234.000
34.26500 233.000
34.31000 246.000
34.35500 259.000
34.40000 233.000
34.44500 226.000
34.49000 217.000
34.53500 246.000
34.58000 241.000
34.62500 222.000
34.67000 238.000
34.71500 248.000
34.76000 264.000
34.80500 254.000
34.85000 270.000
34.89500 251.000
34.94000 241.000
34.98500 233.000
35.03000 251.000
35.07500 227.000
35.12000 227.000
35.16500 231.000
35.21000 232.000
35.25500 250.000
35.30000 228.000
35.34500 231.000
35.39000 203.000
35.43500 212.000
35.48000 198.000
35.52500 213.000
35.57000 197.000
35.61500 213.000
35.66000 188.000
35.70500 186.000
35.75000 209.000
35.79500 192.000
35.84000 189.000
35.88500 191.000
35.93000 213.000
35.97500 188.000
36.02000 193.000
36.06500 198.000
36.11000 181.000
36.15500 187.000
36.20000 193.000
36.24500 201.000
36.29000 212.000
36.33500 187.000
36.38000 190.000
36.42500 180.000
36.47000 198.000
36.51500 174.000
36.56000 194.000
36.60500 205.000
36.65000 197.000
36.69500 198.000
36.74000 204.000
36.78500 202.000
36.83000 199.000
36.87500 200.000
36.92000 181.000
36.96500 176.000
37.01000 197.000
37.05500 166.000
37.10000 184.000
37.14500 177.000
37.19000 184.000
37.23500 194.000
37.28000 199.000
37.32500 186.000
37.37000 196.000
37.41500 167.000
37.46000 196.000
37.50500 191.000
37.55000 184.000
37.59500 183.000
37.64000 176.000
37.68500 182.000
37.73000 168.000
37.77500 181.000
37.82000 170.000
37.86500 197.000
37.91000 193.000
37.95500 180.000
38.00000 193.000
38.04500 159.000
38.09000 189.000
38.13500 183.000
38.18000 205.000
38.22500 199.000
38.27000 192.000
38.31500 168.000
38.36000 187.000
38.40500 210.000
38.45000 199.000
38.49500 187.000
38.54000 171.000
38.58500 175.000
38.63000 191.000
38.67500 173.000
38.72000 186.000
38.76500 197.000
38.81000 191.000
38.85500 174.000
38.90000 178.000
38.94500 173.000
38.99000 195.000
39.03500 187.000
39.08000 172.000
39.12500 195.000
39.17000 166.000
39.21500 167.000
39.26000 199.000
39.30500 179.000
39.35000 171.000
39.39500 173.000
39.44000 191.000
39.48500 201.000
39.53000 181.000
39.57500 194.000
39.62000 185.000
39.66500 200.000
39.71000 200.000
39.75500 186.000
39.80000 200.000
39.84500 209.000
39.89000 238.000
39.93500 218.000
39.98000 205.000
40.02500 190.000
40.07000 173.000
40.11500 205.000
40.16000 195.000
40.20500 204.000
40.25000 194.000
40.29500 186.000
40.34000 183.000
40.38500 205.000
40.43000 186.000
40.47500 179.000
40.52000 183.000
40.56500 182.000
40.61000 171.000
40.65500 168.000
40.70000 180.000
40.74500 206.000
40.79000 182.000
40.83500 203.000
40.88000 195.000
40.92500 205.000
40.97000 200.000
41.01500 217.000
41.06000 199.000
41.10500 190.000
41.15000 188.000
41.19500 183.000
41.24000 191.000
41.28500 179.000
41.33000 191.000
41.37500 187.000
41.42000 193.000
41.46500 193.000
41.51000 184.000
41.55500 178.000
41.60000 183.000
41.64500 182.000
41.69000 194.000
41.73500 179.000
41.78000 198.000
41.82500 197.000
41.87000 166.000
41.91500 212.000
41.96000 198.000
42.00500 185.000
42.05000 202.000
42.09500 174.000
42.14000 178.000
42.18500 179.000
42.23000 169.000
42.27500 174.000
42.32000 178.000
42.36500 174.000
42.41000 177.000
42.45500 168.000
42.50000 172.000
42.54500 185.000
42.59000 159.000
42.63500 199.000
42.68000 173.000
42.72500 171.000
42.77000 174.000
42.81500 176.000
42.86000 157.000
42.90500 175.000
42.95000 170.000
42.99500 177.000
43.04000 208.000
43.08500 196.000
43.13000 199.000
43.17500 192.000
43.22000 193.000
43.26500 194.000
43.31000 179.000
43.35500 180.000
43.40000 166.000
43.44500 169.000
43.49000 156.000
43.53500 192.000
43.58000 161.000
43.62500 181.000
43.67000 146.000
43.71500 160.000
43.76000 182.000
43.80500 162.000
43.85000 161.000
43.89500 147.000
43.94000 158.000
43.98500 170.000
44.03000 182.000
44.07500 163.000
44.12000 159.000
44.16500 171.000
44.21000 172.000
44.25500 160.000
44.30000 191.000
44.34500 182.000
44.39000 161.000
44.43500 192.000
44.48000 147.000
44.52500 163.000
44.57000 163.000
44.61500 160.000
44.66000 171.000
44.70500 155.000
44.75000 181.000
44.79500 179.000
44.84000 156.000
44.88500 173.000
44.93000 179.000
44.97500 160.000
45.02000 149.000
45.06500 181.000
45.11000 160.000
45.15500 159.000
45.20000 172.000
45.24500 170.000
45.29000 169.000
45.33500 171.000
45.38000 164.000
45.42500 181.000
45.47000 185.000
45.51500 167.000
45.56000 178.000
45.60500 165.000
45.65000 174.000
45.69500 178.000
45.74000 173.000
45.78500 179.000
45.83000 167.000
45.87500 180.000
45.92000 177.000
45.96500 172.000
46.01000 180.000
46.05500 177.000
46.10000 168.000
46.14500 140.000
46.19000 173.000
46.23500 157.000
46.28000 170.000
46.32500 183.000
46.37000 168.000
46.41500 172.000
46.46000 169.000
46.50500 159.000
46.55000 173.000
46.59500 159.000
46.64000 171.000
46.68500 161.000
46.73000 160.000
46.77500 170.000
46.82000 181.000
46.86500 159.000
46.91000 159.000
46.95500 183.000
47.00000 164.000
47.04500 147.000
47.09000 158.000
47.13500 168.000
47.18000 160.000
47.22500 156.000
47.27000 154.000
47.31500 164.000
47.36000 130.000
47.40500 145.000
47.45000 142.000
47.49500 168.000
47.54000 169.000
47.58500 160.000
47.63000 163.000
47.67500 136.000
47.72000 135.000
47.76500 159.000
47.81000 157.000
47.85500 142.000
47.90000 156.000
47.94500 163.000
47.99000 169.000
48.03500 178.000
48.08000 166.000
48.12500 167.000
48.17000 165.000
48.21500 154.000
48.26000 169.000
48.30500 150.000
48.35000 170.000
48.39500 169.000
48.44000 149.000
48.48500 133.000
48.53000 135.000
48.57500 143.000
48.62000 147.000
48.66500 140.000
48.71000 163.000
48.75500 158.000
48.80000 134.000
48.84500 147.000
48.89000 153.000
48.93500 134.000
48.98000 141.000
49.02500 135.000
49.07000 155.000
49.11500 141.000
49.16000 148.000
49.20500 149.000
49.25000 141.000
49.29500 146.000
49.34000 123.000
49.38500 133.000
49.43000 122.000
49.47500 143.000
49.52000 163.000
49.56500 135.000
49.61000 137.000
49.65500 148.000
49.70000 148.000
49.74500 147.000
49.79000 162.000
49.83500 145.000
49.88000 139.000
49.92500 127.000
49.97000 138.000
50.01500 121.000
50.06000 130.000
50.10500 130.000
50.15000 152.000
50.19500 137.000
50.24000 137.000
50.28500 133.000
50.33000 127.000
50.37500 146.000
50.42000 126.000
50.46500 136.000
50.51000 132.000
50.55500 149.000
50.60000 147.000
50.64500 142.000
50.69000 140.000
50.73500 147.000
50.78000 137.000
50.82500 143.000
50.87000 126.000
50.91500 155.000
50.96000 146.000
51.00500 134.000
51.05000 132.000
51.09500 144.000
51.14000 151.000
51.18500 132.000
51.23000 145.000
51.27500 152.000
51.32000 145.000
51.36500 126.000
51.41000 138.000
51.45500 148.000
51.50000 124.000
51.54500 143.000
51.59000 136.000
51.63500 146.000
51.68000 160.000
51.72500 143.000
51.77000 146.000
51.81500 148.000
51.86000 142.000
51.90500 126.000
51.95000 141.000
51.99500 144.000
52.04000 141.000
52.08500 146.000
52.13000 137.000
52.17500 133.000
52.22000 152.000
52.26500 161.000
52.31000 161.000
52.35500 140.000
52.40000 161.000
52.44500 146.000
52.49000 144.000
52.53500 143.000
52.58000 152.000
52.62500 128.000
52.67000 132.000
52.71500 137.000
52.76000 131.000
52.80500 134.000
52.85000 136.000
52.89500 150.000
52.94000 138.000
52.98500 140.000
53.03000 154.000
53.07500 158.000
53.12000 148.000
53.16500 144.000
53.21000 139.000
53.25500 150.000
53.30000 152.000
53.34500 154.000
53.39000 151.000
53.43500 158.000
53.48000 155.000
53.52500 146.000
53.57000 142.000
53.61500 145.000
53.66000 148.000
53.70500 134.000
53.75000 133.000
53.79500 122.000
53.84000 142.000
53.88500 131.000
53.93000 134.000
53.97500 147.000
54.02000 135.000
54.06500 142.000
54.11000 139.000
54.15500 145.000
54.20000 143.000
54.24500 148.000
54.29000 136.000
54.33500 131.000
54.38000 151.000
54.42500 140.000
54.47000 126.000
54.51500 147.000
54.56000 125.000
54.60500 133.000
54.65000 144.000
54.69500 125.000
54.74000 142.000
54.78500 145.000
54.83000 148.000
54.87500 131.000
54.92000 130.000
54.96500 140.000
55.01000 136.000
55.05500 149.000
55.10000 128.000
55.14500 142.000
55.19000 156.000
55.23500 140.000
55.28000 124.000
55.32500 119.000
55.37000 123.000
55.41500 136.000
55.46000 139.000
55.50500 148.000
55.55000 128.000
55.59500 136.000
55.64000 120.000
55.68500 139.000
55.73000 147.000
55.77500 140.000
55.82000 143.000
55.86500 141.000
55.91000 142.000
55.95500 142.000
56.00000 153.000
56.04500 134.000
56.09000 139.000
56.13500 136.000
56.18000 151.000
56.22500 126.000
56.27000 139.000
56.31500 135.000
56.36000 152.000
56.40500 153.000
56.45000 129.000
56.49500 130.000
56.54000 129.000
56.58500 137.000
56.63000 147.000
56.67500 132.000
56.72000 134.000
56.76500 131.000
56.81000 135.000
56.85500 117.000
56.90000 120.000
56.94500 121.000
56.99000 139.000
57.03500 128.000
57.08000 134.000
57.12500 129.000
57.17000 134.000
57.21500 120.000
57.26000 138.000
57.30500 134.000
57.35000 115.000
57.39500 131.000
57.44000 136.000
57.48500 119.000
57.53000 140.000
57.57500 129.000
57.62000 135.000
57.66500 115.000
57.71000 106.000
57.75500 127.000
57.80000 124.000
57.84500 136.000
57.89000 142.000
57.93500 143.000
57.98000 125.000
58.02500 131.000
58.07000 128.000
58.11500 133.000
58.16000 110.000
58.20500 140.000
58.25000 131.000
58.29500 115.000
58.34000 115.000
58.38500 118.000
58.43000 121.000
58.47500 122.000
58.52000 109.000
58.56500 123.000
58.61000 144.000
58.65500 117.000
58.70000 113.000
58.74500 124.000
58.79000 123.000
58.83500 124.000
58.88000 130.000
58.92500 136.000
58.97000 115.000
59.01500 125.000
59.06000 142.000
59.10500 126.000
59.15000 132.000
59.19500 125.000
59.24000 121.000
59.28500 135.000
59.33000 111.000
59.37500 139.000
59.42000 132.000
59.46500 125.000
59.51000 119.000
59.55500 133.000
59.60000 125.000
59.64500 133.000
59.69000 134.000
59.73500 126.000
59.78000 129.000
59.82500 121.000
59.87000 122.000
59.91500 131.000
59.96000 130.000
60.00500 128.000
60.05000 114.000
60.09500 120.000
60.14000 116.000
60.18500 121.000
60.23000 112.000
60.27500 120.000
60.32000 108.000
60.36500 132.000
60.41000 108.000
60.45500 122.000
60.50000 103.000
60.54500 129.000
60.59000 107.000
60.63500 113.000
60.68000 128.000
60.72500 123.000
60.77000 126.000
60.81500 123.000
60.86000 113.000
60.90500 130.000
60.95000 124.000
60.99500 126.000
61.04000 123.000
61.08500 130.000
61.13000 105.000
61.17500 128.000
61.22000 119.000
61.26500 103.000
61.31000 124.000
61.35500 112.000
61.40000 117.000
61.44500 128.000
61.49000 124.000
61.53500 107.000
61.58000 133.000
61.62500 110.000
61.67000 118.000
61.71500 118.000
61.76000 114.000
61.80500 119.000
61.85000 123.000
61.89500 124.000
61.94000 113.000
61.98500 110.000