File: ISoD/xrd_data/HSC196_NM_range_7.xy
2.00000 6.000
2.04500 4.000
2.09000 4.000
2.13500 2.000
2.18000 7.000
2.22500 1.000
2.27000 3.000
2.31500 2.000
2.36000 4.000
2.40500 7.000
2.45000 0.000
2.49500 3.000
2.54000 4.000
2.58500 7.000
2.63000 4.000
2.67500 8.000
2.72000 17.000
2.76500 24.000
2.81000 76.000
2.85500 168.000
2.90000 236.000
2.94500 244.000
2.99000 271.000
3.03500 275.000
3.08000 259.000
3.12500 254.000
3.17000 248.000
3.21500 256.000
3.26000 270.000
3.30500 261.000
3.35000 291.000
3.39500 288.000
3.44000 305.000
3.48500 300.000
3.53000 300.000
3.57500 298.000
3.62000 276.000
3.66500 298.000
3.71000 307.000
3.75500 325.000
3.80000 286.000
3.84500 301.000
3.89000 289.000
3.93500 323.000
3.98000 335.000
4.02500 324.000
4.07000 324.000
4.11500 340.000
4.16000 361.000
4.20500 342.000
4.25000 328.000
4.29500 354.000
4.34000 351.000
4.38500 362.000
4.43000 340.000
4.47500 365.000
4.52000 359.000
4.56500 333.000
4.61000 363.000
4.65500 367.000
4.70000 431.000
4.74500 383.000
4.79000 352.000
4.83500 355.000
4.88000 370.000
4.92500 380.000
4.97000 379.000
5.01500 336.000
5.06000 379.000
5.10500 376.000
5.15000 394.000
5.19500 385.000
5.24000 414.000
5.28500 415.000
5.33000 399.000
5.37500 397.000
5.42000 430.000
5.46500 423.000
5.51000 397.000
5.55500 403.000
5.60000 369.000
5.64500 398.000
5.69000 398.000
5.73500 412.000
5.78000 436.000
5.82500 392.000
5.87000 394.000
5.91500 393.000
5.96000 412.000
6.00500 389.000
6.05000 455.000
6.09500 404.000
6.14000 408.000
6.18500 438.000
6.23000 443.000
6.27500 433.000
6.32000 417.000
6.36500 427.000
6.41000 421.000
6.45500 450.000
6.50000 405.000
6.54500 447.000
6.59000 477.000
6.63500 426.000
6.68000 445.000
6.72500 448.000
6.77000 472.000
6.81500 438.000
6.86000 460.000
6.90500 436.000
6.95000 461.000
6.99500 461.000
7.04000 452.000
7.08500 457.000
7.13000 475.000
7.17500 437.000
7.22000 452.000
7.26500 485.000
7.31000 513.000
7.35500 491.000
7.40000 463.000
7.44500 450.000
7.49000 483.000
7.53500 518.000
7.58000 544.000
7.62500 549.000
7.67000 572.000
7.71500 650.000
7.76000 748.000
7.80500 837.000
7.85000 994.000
7.89500 1362.000
7.94000 1781.000
7.98500 1808.000
8.03000 1040.000
8.07500 805.000
8.12000 728.000
8.16500 655.000
8.21000 641.000
8.25500 611.000
8.30000 570.000
8.34500 565.000
8.39000 543.000
8.43500 561.000
8.48000 533.000
8.52500 569.000
8.57000 547.000
8.61500 497.000
8.66000 538.000
8.70500 488.000
8.75000 535.000
8.79500 528.000
8.84000 543.000
8.88500 554.000
8.93000 558.000
8.97500 525.000
9.02000 541.000
9.06500 519.000
9.11000 530.000
9.15500 536.000
9.20000 555.000
9.24500 553.000
9.29000 541.000
9.33500 553.000
9.38000 538.000
9.42500 532.000
9.47000 543.000
9.51500 569.000
9.56000 570.000
9.60500 554.000
9.65000 587.000
9.69500 576.000
9.74000 588.000
9.78500 653.000
9.83000 639.000
9.87500 674.000
9.92000 767.000
9.96500 774.000
10.01000 905.000
10.05500 958.000
10.10000 990.000
10.14500 927.000
10.19000 834.000
10.23500 729.000
10.28000 660.000
10.32500 596.000
10.37000 592.000
10.41500 579.000
10.46000 567.000
10.50500 540.000
10.55000 545.000
10.59500 546.000
10.64000 534.000
10.68500 542.000
10.73000 533.000
10.77500 529.000
10.82000 543.000
10.86500 502.000
10.91000 502.000
10.95500 550.000
11.00000 528.000
11.04500 517.000
11.09000 516.000
11.13500 538.000
11.18000 510.000
11.22500 531.000
11.27000 527.000
11.31500 514.000
11.36000 535.000
11.40500 515.000
11.45000 514.000
11.49500 525.000
11.54000 529.000
11.58500 515.000
11.63000 503.000
11.67500 517.000
11.72000 523.000
11.76500 475.000
11.81000 526.000
11.85500 507.000
11.90000 504.000
11.94500 505.000
11.99000 480.000
12.03500 494.000
12.08000 498.000
12.12500 512.000
12.17000 532.000
12.21500 461.000
12.26000 482.000
12.30500 511.000
12.35000 470.000
12.39500 505.000
12.44000 501.000
12.48500 507.000
12.53000 506.000
12.57500 486.000
12.62000 487.000
12.66500 515.000
12.71000 487.000
12.75500 493.000
12.80000 525.000
12.84500 477.000
12.89000 490.000
12.93500 505.000
12.98000 506.000
13.02500 478.000
13.07000 496.000
13.11500 497.000
13.16000 478.000
13.20500 490.000
13.25000 474.000
13.29500 479.000
13.34000 513.000
13.38500 480.000
13.43000 501.000
13.47500 495.000
13.52000 494.000
13.56500 497.000
13.61000 483.000
13.65500 474.000
13.70000 493.000
13.74500 501.000
13.79000 478.000
13.83500 518.000
13.88000 467.000
13.92500 475.000
13.97000 529.000
14.01500 527.000
14.06000 475.000
14.10500 462.000
14.15000 505.000
14.19500 496.000
14.24000 513.000
14.28500 478.000
14.33000 477.000
14.37500 495.000
14.42000 481.000
14.46500 490.000
14.51000 478.000
14.55500 494.000
14.60000 516.000
14.64500 524.000
14.69000 496.000
14.73500 534.000
14.78000 506.000
14.82500 466.000
14.87000 506.000
14.91500 497.000
14.96000 528.000
15.00500 579.000
15.05000 552.000
15.09500 604.000
15.14000 583.000
15.18500 604.000
15.23000 585.000
15.27500 585.000
15.32000 569.000
15.36500 558.000
15.41000 547.000
15.45500 476.000
15.50000 508.000
15.54500 488.000
15.59000 495.000
15.63500 483.000
15.68000 499.000
15.72500 522.000
15.77000 494.000
15.81500 481.000
15.86000 474.000
15.90500 546.000
15.95000 517.000
15.99500 505.000
16.04000 492.000
16.08500 488.000
16.13000 484.000
16.17500 472.000
16.22000 485.000
16.26500 493.000
16.31000 475.000
16.35500 472.000
16.40000 469.000
16.44500 467.000
16.49000 504.000
16.53500 479.000
16.58000 521.000
16.62500 476.000
16.67000 478.000
16.71500 483.000
16.76000 485.000
16.80500 500.000
16.85000 509.000
16.89500 477.000
16.94000 481.000
16.98500 479.000
17.03000 498.000
17.07500 503.000
17.12000 486.000
17.16500 483.000
17.21000 501.000
17.25500 498.000
17.30000 508.000
17.34500 486.000
17.39000 495.000
17.43500 502.000
17.48000 494.000
17.52500 536.000
17.57000 502.000
17.61500 503.000
17.66000 545.000
17.70500 524.000
17.75000 500.000
17.79500 537.000
17.84000 512.000
17.88500 483.000
17.93000 492.000
17.97500 497.000
18.02000 476.000
18.06500 504.000
18.11000 493.000
18.15500 478.000
18.20000 533.000
18.24500 533.000
18.29000 494.000
18.33500 513.000
18.38000 573.000
18.42500 600.000
18.47000 582.000
18.51500 613.000
18.56000 661.000
18.60500 662.000
18.65000 732.000
18.69500 681.000
18.74000 638.000
18.78500 644.000
18.83000 548.000
18.87500 545.000
18.92000 531.000
18.96500 525.000
19.01000 541.000
19.05500 533.000
19.10000 542.000
19.14500 533.000
19.19000 549.000
19.23500 521.000
19.28000 507.000
19.32500 494.000
19.37000 498.000
19.41500 494.000
19.46000 552.000
19.50500 517.000
19.55000 519.000
19.59500 511.000
19.64000 530.000
19.68500 512.000
19.73000 559.000
19.77500 514.000
19.82000 526.000
19.86500 499.000
19.91000 531.000
19.95500 556.000
20.00000 506.000
20.04500 557.000
20.09000 530.000
20.13500 516.000
20.18000 526.000
20.22500 497.000
20.27000 530.000
20.31500 530.000
20.36000 540.000
20.40500 547.000
20.45000 503.000
20.49500 540.000
20.54000 528.000
20.58500 526.000
20.63000 528.000
20.67500 514.000
20.72000 547.000
20.76500 539.000
20.81000 520.000
20.85500 515.000
20.90000 583.000
20.94500 546.000
20.99000 571.000
21.03500 577.000
21.08000 555.000
21.12500 555.000
21.17000 534.000
21.21500 593.000
21.26000 534.000
21.30500 614.000
21.35000 582.000
21.39500 569.000
21.44000 561.000
21.48500 606.000
21.53000 547.000
21.57500 590.000
21.62000 581.000
21.66500 604.000
21.71000 610.000
21.75500 611.000
21.80000 630.000
21.84500 643.000
21.89000 666.000
21.93500 696.000
21.98000 673.000
22.02500 739.000
22.07000 712.000
22.11500 746.000
22.16000 713.000
22.20500 697.000
22.25000 691.000
22.29500 689.000
22.34000 676.000
22.38500 643.000
22.43000 644.000
22.47500 638.000
22.52000 653.000
22.56500 703.000
22.61000 633.000
22.65500 694.000
22.70000 732.000
22.74500 685.000
22.79000 764.000
22.83500 830.000
22.88000 859.000
22.92500 871.000
22.97000 874.000
23.01500 821.000
23.06000 877.000
23.10500 816.000
23.15000 753.000
23.19500 755.000
23.24000 707.000
23.28500 691.000
23.33000 701.000
23.37500 676.000
23.42000 654.000
23.46500 694.000
23.51000 644.000
23.55500 685.000
23.60000 670.000
23.64500 610.000
23.69000 678.000
23.73500 657.000
23.78000 682.000
23.82500 665.000
23.87000 645.000
23.91500 665.000
23.96000 701.000
24.00500 710.000
24.05000 728.000
24.09500 716.000
24.14000 657.000
24.18500 696.000
24.23000 722.000
24.27500 693.000
24.32000 732.000
24.36500 775.000
24.41000 752.000
24.45500 747.000
24.50000 772.000
24.54500 783.000
24.59000 761.000
24.63500 836.000
24.68000 779.000
24.72500 792.000
24.77000 769.000
24.81500 734.000
24.86000 735.000
24.90500 780.000
24.95000 800.000
24.99500 778.000
25.04000 729.000
25.08500 754.000
25.13000 770.000
25.17500 753.000
25.22000 786.000
25.26500 761.000
25.31000 807.000
25.35500 829.000
25.40000 799.000
25.44500 887.000
25.49000 859.000
25.53500 881.000
25.58000 879.000
25.62500 902.000
25.67000 890.000
25.71500 887.000
25.76000 868.000
25.80500 854.000
25.85000 854.000
25.89500 840.000
25.94000 819.000
25.98500 858.000
26.03000 801.000
26.07500 827.000
26.12000 845.000
26.16500 808.000
26.21000 798.000
26.25500 837.000
26.30000 851.000
26.34500 843.000
26.39000 835.000
26.43500 834.000
26.48000 849.000
26.52500 904.000
26.57000 879.000
26.61500 851.000
26.66000 932.000
26.70500 895.000
26.75000 933.000
26.79500 954.000
26.84000 919.000
26.88500 935.000
26.93000 950.000
26.97500 991.000
27.02000 942.000
27.06500 964.000
27.11000 1030.000
27.15500 1030.000
27.20000 1042.000
27.24500 1073.000
27.29000 1188.000
27.33500 1157.000
27.38000 1228.000
27.42500 1372.000
27.47000 1424.000
27.51500 1712.000
27.56000 2005.000
27.60500 2457.000
27.65000 3019.000
27.69500 3534.000
27.74000 3826.000
27.78500 3689.000
27.83000 3259.000
27.87500 3025.000
27.92000 2896.000
27.96500 2705.000
28.01000 2644.000
28.05500 2404.000
28.10000 2225.000
28.14500 2107.000
28.19000 1985.000
28.23500 1867.000
28.28000 1666.000
28.32500 1566.000
28.37000 1444.000
28.41500 1391.000
28.46000 1283.000
28.50500 1187.000
28.55000 1177.000
28.59500 1114.000
28.64000 1038.000
28.68500 1046.000
28.73000 1032.000
28.77500 994.000
28.82000 1003.000
28.86500 946.000
28.91000 963.000
28.95500 980.000
29.00000 954.000
29.04500 928.000
29.09000 996.000
29.13500 955.000
29.18000 965.000
29.22500 946.000
29.27000 845.000
29.31500 820.000
29.36000 804.000
29.40500 829.000
29.45000 766.000
29.49500 803.000
29.54000 719.000
29.58500 787.000
29.63000 761.000
29.67500 763.000
29.72000 786.000
29.76500 796.000
29.81000 785.000
29.85500 756.000
29.90000 788.000
29.94500 756.000
29.99000 777.000
30.03500 756.000
30.08000 727.000
30.12500 747.000
30.17000 782.000
30.21500 794.000
30.26000 765.000
30.30500 772.000
30.35000 826.000
30.39500 796.000
30.44000 796.000
30.48500 780.000
30.53000 837.000
30.57500 807.000
30.62000 798.000
30.66500 791.000
30.71000 756.000
30.75500 735.000
30.80000 739.000
30.84500 726.000
30.89000 689.000
30.93500 714.000
30.98000 689.000
31.02500 687.000
31.07000 662.000
31.11500 643.000
31.16000 631.000
31.20500 574.000
31.25000 640.000
31.29500 652.000
31.34000 629.000
31.38500 634.000
31.43000 657.000
31.47500 625.000
31.52000 617.000
31.56500 671.000
31.61000 626.000
31.65500 645.000
31.70000 619.000
31.74500 636.000
31.79000 663.000
31.83500 661.000
31.88000 654.000
31.92500 602.000
31.97000 599.000
32.01500 650.000
32.06000 608.000
32.10500 629.000
32.15000 660.000
32.19500 684.000
32.24000 709.000
32.28500 763.000
32.33000 804.000
32.37500 802.000
32.42000 788.000
32.46500 711.000
32.51000 641.000
32.55500 605.000
32.60000 588.000
32.64500 580.000
32.69000 561.000
32.73500 529.000
32.78000 525.000
32.82500 542.000
32.87000 489.000
32.91500 503.000
32.96000 515.000
33.00500 495.000
33.05000 462.000
33.09500 485.000
33.14000 447.000
33.18500 481.000
33.23000 473.000
33.27500 453.000
33.32000 478.000
33.36500 427.000
33.41000 455.000
33.45500 468.000
33.50000 442.000
33.54500 507.000
33.59000 443.000
33.63500 457.000
33.68000 474.000
33.72500 455.000
33.77000 441.000
33.81500 427.000
33.86000 441.000
33.90500 459.000
33.95000 437.000
33.99500 446.000
34.04000 436.000
34.08500 460.000
34.13000 452.000
34.17500 438.000
34.22000 427.000
34.26500 452.000
34.31000 475.000
34.35500 464.000
34.40000 460.000
34.44500 426.000
34.49000 461.000
34.53500 476.000
34.58000 456.000
34.62500 469.000
34.67000 483.000
34.71500 446.000
34.76000 441.000
34.80500 459.000
34.85000 429.000
34.89500 466.000
34.94000 439.000
34.98500 467.000
35.03000 457.000
35.07500 504.000
35.12000 508.000
35.16500 491.000
35.21000 537.000
35.25500 534.000
35.30000 572.000
35.34500 628.000
35.39000 754.000
35.43500 886.000
35.48000 1004.000
35.52500 909.000
35.57000 709.000
35.61500 609.000
35.66000 573.000
35.70500 555.000
35.75000 506.000
35.79500 480.000
35.84000 515.000
35.88500 488.000
35.93000 483.000
35.97500 472.000
36.02000 505.000
36.06500 507.000
36.11000 506.000
36.15500 534.000
36.20000 536.000
36.24500 550.000
36.29000 569.000
36.33500 567.000
36.38000 558.000
36.42500 565.000
36.47000 538.000
36.51500 577.000
36.56000 543.000
36.60500 550.000
36.65000 519.000
36.69500 499.000
36.74000 500.000
36.78500 479.000
36.83000 472.000
36.87500 460.000
36.92000 476.000
36.96500 448.000
37.01000 458.000
37.05500 479.000
37.10000 452.000
37.14500 464.000
37.19000 495.000
37.23500 499.000
37.28000 509.000
37.32500 548.000
37.37000 521.000
37.41500 492.000
37.46000 538.000
37.50500 526.000
37.55000 504.000
37.59500 552.000
37.64000 497.000
37.68500 499.000
37.73000 505.000
37.77500 493.000
37.82000 516.000
37.86500 492.000
37.91000 466.000
37.95500 497.000
38.00000 471.000
38.04500 494.000
38.09000 481.000
38.13500 483.000
38.18000 492.000
38.22500 486.000
38.27000 461.000
38.31500 454.000
38.36000 458.000
38.40500 494.000
38.45000 466.000
38.49500 482.000
38.54000 487.000
38.58500 497.000
38.63000 464.000
38.67500 487.000
38.72000 464.000
38.76500 485.000
38.81000 469.000
38.85500 467.000
38.90000 484.000
38.94500 459.000
38.99000 440.000
39.03500 438.000
39.08000 415.000
39.12500 398.000
39.17000 408.000
39.21500 389.000
39.26000 401.000
39.30500 397.000
39.35000 391.000
39.39500 390.000
39.44000 413.000
39.48500 389.000
39.53000 402.000
39.57500 420.000
39.62000 399.000
39.66500 375.000
39.71000 384.000
39.75500 398.000
39.80000 411.000
39.84500 445.000
39.89000 437.000
39.93500 432.000
39.98000 430.000
40.02500 433.000
40.07000 447.000
40.11500 449.000
40.16000 455.000
40.20500 441.000
40.25000 426.000
40.29500 446.000
40.34000 450.000
40.38500 414.000
40.43000 467.000
40.47500 443.000
40.52000 420.000
40.56500 434.000
40.61000 433.000
40.65500 422.000
40.70000 419.000
40.74500 412.000
40.79000 391.000
40.83500 386.000
40.88000 394.000
40.92500 383.000
40.97000 337.000
41.01500 390.000
41.06000 394.000
41.10500 373.000
41.15000 375.000
41.19500 380.000
41.24000 397.000
41.28500 391.000
41.33000 366.000
41.37500 361.000
41.42000 360.000
41.46500 358.000
41.51000 360.000
41.55500 368.000
41.60000 355.000
41.64500 366.000
41.69000 351.000
41.73500 372.000
41.78000 348.000
41.82500 361.000
41.87000 357.000
41.91500 356.000
41.96000 352.000
42.00500 388.000
42.05000 347.000
42.09500 360.000
42.14000 309.000
42.18500 351.000
42.23000 343.000
42.27500 327.000
42.32000 373.000
42.36500 339.000
42.41000 359.000
42.45500 389.000
42.50000 386.000
42.54500 354.000
42.59000 356.000
42.63500 339.000
42.68000 336.000
42.72500 363.000
42.77000 403.000
42.81500 388.000
42.86000 401.000
42.90500 409.000
42.95000 402.000
42.99500 424.000
43.04000 462.000
43.08500 480.000
43.13000 493.000
43.17500 576.000
43.22000 605.000
43.26500 640.000
43.31000 671.000
43.35500 611.000
43.40000 549.000
43.44500 524.000
43.49000 488.000
43.53500 469.000
43.58000 444.000
43.62500 440.000
43.67000 428.000
43.71500 399.000
43.76000 431.000
43.80500 377.000
43.85000 399.000
43.89500 373.000
43.94000 376.000
43.98500 371.000
44.03000 401.000
44.07500 352.000
44.12000 418.000
44.16500 419.000
44.21000 408.000
44.25500 406.000
44.30000 418.000
44.34500 467.000
44.39000 504.000
44.43500 432.000
44.48000 428.000
44.52500 438.000
44.57000 424.000
44.61500 388.000
44.66000 424.000
44.70500 441.000
44.75000 406.000
44.79500 399.000
44.84000 420.000
44.88500 418.000
44.93000 471.000
44.97500 426.000
45.02000 401.000
45.06500 429.000
45.11000 399.000
45.15500 413.000
45.20000 385.000
45.24500 395.000
45.29000 400.000
45.33500 391.000
45.38000 361.000
45.42500 393.000
45.47000 377.000
45.51500 371.000
45.56000 397.000
45.60500 363.000
45.65000 404.000
45.69500 391.000
45.74000 382.000
45.78500 374.000
45.83000 377.000
45.87500 357.000
45.92000 397.000
45.96500 387.000
46.01000 406.000
46.05500 401.000
46.10000 375.000
46.14500 378.000
46.19000 399.000
46.23500 372.000
46.28000 359.000
46.32500 392.000
46.37000 357.000
46.41500 361.000
46.46000 350.000
46.50500 377.000
46.55000 349.000
46.59500 342.000
46.64000 348.000
46.68500 351.000
46.73000 341.000
46.77500 358.000
46.82000 364.000
46.86500 350.000
46.91000 338.000
46.95500 357.000
47.00000 330.000
47.04500 333.000
47.09000 354.000
47.13500 319.000
47.18000 358.000
47.22500 344.000
47.27000 344.000
47.31500 306.000
47.36000 338.000
47.40500 322.000
47.45000 305.000
47.49500 319.000
47.54000 327.000
47.58500 268.000
47.63000 301.000
47.67500 309.000
47.72000 288.000
47.76500 307.000
47.81000 283.000
47.85500 297.000
47.90000 301.000
47.94500 281.000
47.99000 285.000
48.03500 294.000
48.08000 278.000
48.12500 298.000
48.17000 301.000
48.21500 300.000
48.26000 277.000
48.30500 268.000
48.35000 293.000
48.39500 264.000
48.44000 271.000
48.48500 274.000
48.53000 281.000
48.57500 292.000
48.62000 283.000
48.66500 281.000
48.71000 256.000
48.75500 282.000
48.80000 289.000
48.84500 273.000
48.89000 281.000
48.93500 270.000
48.98000 236.000
49.02500 279.000
49.07000 286.000
49.11500 264.000
49.16000 297.000
49.20500 242.000
49.25000 281.000
49.29500 290.000
49.34000 282.000
49.38500 274.000
49.43000 269.000
49.47500 279.000
49.52000 280.000
49.56500 264.000
49.61000 275.000
49.65500 273.000
49.70000 258.000
49.74500 287.000
49.79000 274.000
49.83500 314.000
49.88000 267.000
49.92500 278.000
49.97000 310.000
50.01500 315.000
50.06000 312.000
50.10500 319.000
50.15000 314.000
50.19500 309.000
50.24000 287.000
50.28500 297.000
50.33000 271.000
50.37500 269.000
50.42000 299.000
50.46500 285.000
50.51000 280.000
50.55500 289.000
50.60000 283.000
50.64500 285.000
50.69000 290.000
50.73500 314.000
50.78000 307.000
50.82500 298.000
50.87000 272.000
50.91500 298.000
50.96000 299.000
51.00500 294.000
51.05000 290.000
51.09500 282.000
51.14000 292.000
51.18500 300.000
51.23000 288.000
51.27500 290.000
51.32000 277.000
51.36500 283.000
51.41000 318.000
51.45500 279.000
51.50000 275.000
51.54500 301.000
51.59000 299.000
51.63500 321.000
51.68000 313.000
51.72500 301.000
51.77000 282.000
51.81500 285.000
51.86000 280.000
51.90500 277.000
51.95000 275.000
51.99500 299.000
52.04000 273.000
52.08500 265.000
52.13000 263.000
52.17500 261.000
52.22000 267.000
52.26500 272.000
52.31000 261.000
52.35500 251.000
52.40000 279.000
52.44500 264.000
52.49000 282.000
52.53500 290.000
52.58000 289.000
52.62500 283.000
52.67000 284.000
52.71500 307.000
52.76000 268.000
52.80500 299.000
52.85000 272.000
52.89500 306.000
52.94000 276.000
52.98500 292.000
53.03000 287.000
53.07500 264.000
53.12000 279.000
53.16500 299.000
53.21000 282.000
53.25500 295.000
53.30000 257.000
53.34500 257.000
53.39000 308.000
53.43500 263.000
53.48000 300.000
53.52500 259.000
53.57000 258.000
53.61500 258.000
53.66000 256.000
53.70500 282.000
53.75000 267.000
53.79500 260.000
53.84000 272.000
53.88500 285.000
53.93000 282.000
53.97500 277.000
54.02000 268.000
54.06500 284.000
54.11000 272.000
54.15500 303.000
54.20000 261.000
54.24500 279.000
54.29000 304.000
54.33500 294.000
54.38000 271.000
54.42500 283.000
54.47000 259.000
54.51500 249.000
54.56000 267.000
54.60500 271.000
54.65000 265.000
54.69500 257.000
54.74000 256.000
54.78500 254.000
54.83000 242.000
54.87500 255.000
54.92000 262.000
54.96500 272.000
55.01000 225.000
55.05500 261.000
55.10000 245.000
55.14500 288.000
55.19000 230.000
55.23500 246.000
55.28000 257.000
55.32500 249.000
55.37000 246.000
55.41500 297.000
55.46000 248.000
55.50500 249.000
55.55000 240.000
55.59500 261.000
55.64000 236.000
55.68500 259.000
55.73000 249.000
55.77500 272.000
55.82000 245.000
55.86500 237.000
55.91000 261.000
55.95500 250.000
56.00000 244.000
56.04500 250.000
56.09000 248.000
56.13500 233.000
56.18000 269.000
56.22500 250.000
56.27000 262.000
56.31500 246.000
56.36000 243.000
56.40500 253.000
56.45000 253.000
56.49500 253.000
56.54000 251.000
56.58500 256.000
56.63000 245.000
56.67500 238.000
56.72000 290.000
56.76500 255.000
56.81000 269.000
56.85500 273.000
56.90000 258.000
56.94500 266.000
56.99000 287.000
57.03500 278.000
57.08000 267.000
57.12500 269.000
57.17000 279.000
57.21500 304.000
57.26000 305.000
57.30500 288.000
57.35000 273.000
57.39500 292.000
57.44000 281.000
57.48500 306.000
57.53000 293.000
57.57500 293.000
57.62000 305.000
57.66500 286.000
57.71000 287.000
57.75500 296.000
57.80000 295.000
57.84500 303.000
57.89000 268.000
57.93500 267.000
57.98000 270.000
58.02500 277.000
58.07000 257.000
58.11500 255.000
58.16000 301.000
58.20500 277.000
58.25000 275.000
58.29500 285.000
58.34000 278.000
58.38500 275.000
58.43000 271.000
58.47500 267.000
58.52000 274.000
58.56500 251.000
58.61000 266.000
58.65500 267.000
58.70000 250.000
58.74500 270.000
58.79000 248.000
58.83500 226.000
58.88000 273.000
58.92500 237.000
58.97000 261.000
59.01500 232.000
59.06000 262.000
59.10500 256.000
59.15000 256.000
59.19500 269.000
59.24000 237.000
59.28500 268.000
59.33000 263.000
59.37500 248.000
59.42000 260.000
59.46500 254.000
59.51000 271.000
59.55500 251.000
59.60000 264.000
59.64500 247.000
59.69000 272.000
59.73500 246.000
59.78000 249.000
59.82500 255.000
59.87000 252.000
59.91500 250.000
59.96000 267.000
60.00500 221.000
60.05000 235.000
60.09500 238.000
60.14000 252.000
60.18500 234.000
60.23000 235.000
60.27500 248.000
60.32000 234.000
60.36500 229.000
60.41000 258.000
60.45500 242.000
60.50000 258.000
60.54500 259.000
60.59000 254.000
60.63500 234.000
60.68000 224.000
60.72500 246.000
60.77000 242.000
60.81500 233.000
60.86000 234.000
60.90500 236.000
60.95000 228.000
60.99500 238.000
61.04000 231.000
61.08500 243.000
61.13000 267.000
61.17500 254.000
61.22000 226.000
61.26500 258.000
61.31000 233.000
61.35500 236.000
61.40000 258.000
61.44500 233.000
61.49000 251.000
61.53500 220.000
61.58000 230.000
61.62500 226.000
61.67000 201.000
61.71500 243.000
61.76000 205.000
61.80500 225.000
61.85000 203.000
61.89500 219.000
61.94000 232.000
61.98500 216.000