File: ISoD/xrd_data/HSC196.xy
2.00000 2.000
2.04500 3.000
2.09000 3.000
2.13500 1.000
2.18000 1.000
2.22500 1.000
2.27000 0.000
2.31500 3.000
2.36000 1.000
2.40500 1.000
2.45000 7.000
2.49500 17.000
2.54000 42.000
2.58500 81.000
2.63000 117.000
2.67500 126.000
2.72000 134.000
2.76500 118.000
2.81000 104.000
2.85500 116.000
2.90000 129.000
2.94500 118.000
2.99000 125.000
3.03500 121.000
3.08000 98.000
3.12500 119.000
3.17000 109.000
3.21500 121.000
3.26000 105.000
3.30500 124.000
3.35000 105.000
3.39500 127.000
3.44000 117.000
3.48500 125.000
3.53000 122.000
3.57500 116.000
3.62000 120.000
3.66500 119.000
3.71000 135.000
3.75500 126.000
3.80000 142.000
3.84500 123.000
3.89000 137.000
3.93500 127.000
3.98000 142.000
4.02500 129.000
4.07000 135.000
4.11500 132.000
4.16000 135.000
4.20500 139.000
4.25000 134.000
4.29500 131.000
4.34000 133.000
4.38500 138.000
4.43000 129.000
4.47500 135.000
4.52000 135.000
4.56500 145.000
4.61000 153.000
4.65500 156.000
4.70000 134.000
4.74500 155.000
4.79000 144.000
4.83500 148.000
4.88000 150.000
4.92500 152.000
4.97000 167.000
5.01500 146.000
5.06000 123.000
5.10500 155.000
5.15000 146.000
5.19500 161.000
5.24000 150.000
5.28500 158.000
5.33000 151.000
5.37500 138.000
5.42000 164.000
5.46500 160.000
5.51000 166.000
5.55500 145.000
5.60000 150.000
5.64500 158.000
5.69000 141.000
5.73500 161.000
5.78000 144.000
5.82500 161.000
5.87000 147.000
5.91500 143.000
5.96000 155.000
6.00500 154.000
6.05000 158.000
6.09500 137.000
6.14000 152.000
6.18500 167.000
6.23000 157.000
6.27500 156.000
6.32000 170.000
6.36500 137.000
6.41000 167.000
6.45500 168.000
6.50000 181.000
6.54500 160.000
6.59000 161.000
6.63500 166.000
6.68000 172.000
6.72500 158.000
6.77000 176.000
6.81500 188.000
6.86000 186.000
6.90500 189.000
6.95000 174.000
6.99500 157.000
7.04000 170.000
7.08500 183.000
7.13000 150.000
7.17500 142.000
7.22000 156.000
7.26500 186.000
7.31000 183.000
7.35500 185.000
7.40000 172.000
7.44500 177.000
7.49000 165.000
7.53500 191.000
7.58000 202.000
7.62500 207.000
7.67000 228.000
7.71500 282.000
7.76000 291.000
7.80500 320.000
7.85000 411.000
7.89500 534.000
7.94000 712.000
7.98500 795.000
8.03000 411.000
8.07500 326.000
8.12000 257.000
8.16500 251.000
8.21000 251.000
8.25500 207.000
8.30000 225.000
8.34500 218.000
8.39000 207.000
8.43500 217.000
8.48000 234.000
8.52500 202.000
8.57000 195.000
8.61500 198.000
8.66000 214.000
8.70500 209.000
8.75000 206.000
8.79500 203.000
8.84000 210.000
8.88500 193.000
8.93000 207.000
8.97500 192.000
9.02000 217.000
9.06500 203.000
9.11000 221.000
9.15500 214.000
9.20000 173.000
9.24500 201.000
9.29000 191.000
9.33500 209.000
9.38000 193.000
9.42500 214.000
9.47000 204.000
9.51500 201.000
9.56000 191.000
9.60500 177.000
9.65000 227.000
9.69500 216.000
9.74000 214.000
9.78500 237.000
9.83000 231.000
9.87500 244.000
9.92000 261.000
9.96500 299.000
10.01000 352.000
10.05500 387.000
10.10000 390.000
10.14500 354.000
10.19000 346.000
10.23500 289.000
10.28000 234.000
10.32500 239.000
10.37000 205.000
10.41500 223.000
10.46000 225.000
10.50500 188.000
10.55000 184.000
10.59500 179.000
10.64000 198.000
10.68500 197.000
10.73000 187.000
10.77500 205.000
10.82000 192.000
10.86500 170.000
10.91000 208.000
10.95500 189.000
11.00000 211.000
11.04500 186.000
11.09000 192.000
11.13500 187.000
11.18000 193.000
11.22500 207.000
11.27000 201.000
11.31500 179.000
11.36000 178.000
11.40500 200.000
11.45000 189.000
11.49500 204.000
11.54000 205.000
11.58500 190.000
11.63000 178.000
11.67500 188.000
11.72000 189.000
11.76500 160.000
11.81000 188.000
11.85500 174.000
11.90000 174.000
11.94500 170.000
11.99000 185.000
12.03500 178.000
12.08000 182.000
12.12500 195.000
12.17000 193.000
12.21500 177.000
12.26000 190.000
12.30500 185.000
12.35000 191.000
12.39500 169.000
12.44000 192.000
12.48500 196.000
12.53000 182.000
12.57500 172.000
12.62000 186.000
12.66500 170.000
12.71000 200.000
12.75500 184.000
12.80000 178.000
12.84500 189.000
12.89000 179.000
12.93500 184.000
12.98000 177.000
13.02500 212.000
13.07000 162.000
13.11500 184.000
13.16000 175.000
13.20500 175.000
13.25000 191.000
13.29500 199.000
13.34000 195.000
13.38500 185.000
13.43000 178.000
13.47500 179.000
13.52000 165.000
13.56500 208.000
13.61000 188.000
13.65500 161.000
13.70000 191.000
13.74500 173.000
13.79000 171.000
13.83500 196.000
13.88000 177.000
13.92500 199.000
13.97000 180.000
14.01500 175.000
14.06000 168.000
14.10500 175.000
14.15000 180.000
14.19500 189.000
14.24000 168.000
14.28500 174.000
14.33000 186.000
14.37500 191.000
14.42000 188.000
14.46500 191.000
14.51000 198.000
14.55500 192.000
14.60000 194.000
14.64500 197.000
14.69000 170.000
14.73500 182.000
14.78000 167.000
14.82500 169.000
14.87000 188.000
14.91500 186.000
14.96000 200.000
15.00500 188.000
15.05000 181.000
15.09500 218.000
15.14000 205.000
15.18500 202.000
15.23000 240.000
15.27500 192.000
15.32000 193.000
15.36500 188.000
15.41000 179.000
15.45500 182.000
15.50000 177.000
15.54500 201.000
15.59000 206.000
15.63500 171.000
15.68000 195.000
15.72500 181.000
15.77000 178.000
15.81500 177.000
15.86000 179.000
15.90500 182.000
15.95000 181.000
15.99500 202.000
16.04000 184.000
16.08500 180.000
16.13000 187.000
16.17500 186.000
16.22000 182.000
16.26500 177.000
16.31000 185.000
16.35500 176.000
16.40000 171.000
16.44500 182.000
16.49000 178.000
16.53500 177.000
16.58000 175.000
16.62500 184.000
16.67000 182.000
16.71500 173.000
16.76000 175.000
16.80500 183.000
16.85000 203.000
16.89500 178.000
16.94000 181.000
16.98500 171.000
17.03000 158.000
17.07500 184.000
17.12000 194.000
17.16500 182.000
17.21000 177.000
17.25500 176.000
17.30000 167.000
17.34500 190.000
17.39000 195.000
17.43500 188.000
17.48000 178.000
17.52500 171.000
17.57000 178.000
17.61500 181.000
17.66000 184.000
17.70500 179.000
17.75000 157.000
17.79500 195.000
17.84000 189.000
17.88500 169.000
17.93000 206.000
17.97500 186.000
18.02000 178.000
18.06500 182.000
18.11000 179.000
18.15500 192.000
18.20000 175.000
18.24500 201.000
18.29000 185.000
18.33500 177.000
18.38000 210.000
18.42500 202.000
18.47000 203.000
18.51500 233.000
18.56000 256.000
18.60500 258.000
18.65000 264.000
18.69500 273.000
18.74000 264.000
18.78500 238.000
18.83000 218.000
18.87500 216.000
18.92000 217.000
18.96500 194.000
19.01000 216.000
19.05500 211.000
19.10000 191.000
19.14500 200.000
19.19000 208.000
19.23500 196.000
19.28000 171.000
19.32500 195.000
19.37000 190.000
19.41500 175.000
19.46000 170.000
19.50500 195.000
19.55000 184.000
19.59500 193.000
19.64000 180.000
19.68500 192.000
19.73000 161.000
19.77500 179.000
19.82000 189.000
19.86500 184.000
19.91000 187.000
19.95500 174.000
20.00000 186.000
20.04500 175.000
20.09000 193.000
20.13500 201.000
20.18000 216.000
20.22500 203.000
20.27000 204.000
20.31500 182.000
20.36000 207.000
20.40500 200.000
20.45000 195.000
20.49500 209.000
20.54000 197.000
20.58500 220.000
20.63000 196.000
20.67500 209.000
20.72000 202.000
20.76500 206.000
20.81000 205.000
20.85500 195.000
20.90000 195.000
20.94500 175.000
20.99000 198.000
21.03500 222.000
21.08000 199.000
21.12500 195.000
21.17000 199.000
21.21500 204.000
21.26000 204.000
21.30500 214.000
21.35000 214.000
21.39500 220.000
21.44000 204.000
21.48500 216.000
21.53000 224.000
21.57500 209.000
21.62000 211.000
21.66500 206.000
21.71000 234.000
21.75500 240.000
21.80000 239.000
21.84500 226.000
21.89000 252.000
21.93500 279.000
21.98000 257.000
22.02500 258.000
22.07000 287.000
22.11500 273.000
22.16000 298.000
22.20500 271.000
22.25000 289.000
22.29500 275.000
22.34000 230.000
22.38500 224.000
22.43000 259.000
22.47500 249.000
22.52000 266.000
22.56500 277.000
22.61000 270.000
22.65500 253.000
22.70000 262.000
22.74500 259.000
22.79000 313.000
22.83500 336.000
22.88000 353.000
22.92500 352.000
22.97000 353.000
23.01500 341.000
23.06000 346.000
23.10500 340.000
23.15000 318.000
23.19500 303.000
23.24000 273.000
23.28500 252.000
23.33000 279.000
23.37500 255.000
23.42000 258.000
23.46500 257.000
23.51000 266.000
23.55500 249.000
23.60000 276.000
23.64500 252.000
23.69000 279.000
23.73500 257.000
23.78000 238.000
23.82500 247.000
23.87000 263.000
23.91500 266.000
23.96000 272.000
24.00500 268.000
24.05000 283.000
24.09500 278.000
24.14000 271.000
24.18500 249.000
24.23000 274.000
24.27500 265.000
24.32000 266.000
24.36500 275.000
24.41000 268.000
24.45500 272.000
24.50000 283.000
24.54500 323.000
24.59000 331.000
24.63500 305.000
24.68000 306.000
24.72500 319.000
24.77000 298.000
24.81500 301.000
24.86000 285.000
24.90500 280.000
24.95000 292.000
24.99500 311.000
25.04000 298.000
25.08500 285.000
25.13000 324.000
25.17500 275.000
25.22000 293.000
25.26500 313.000
25.31000 305.000
25.35500 314.000
25.40000 301.000
25.44500 326.000
25.49000 331.000
25.53500 361.000
25.58000 378.000
25.62500 361.000
25.67000 369.000
25.71500 393.000
25.76000 345.000
25.80500 370.000
25.85000 353.000
25.89500 329.000
25.94000 348.000
25.98500 335.000
26.03000 333.000
26.07500 330.000
26.12000 317.000
26.16500 328.000
26.21000 326.000
26.25500 297.000
26.30000 337.000
26.34500 322.000
26.39000 341.000
26.43500 335.000
26.48000 349.000
26.52500 318.000
26.57000 318.000
26.61500 345.000
26.66000 345.000
26.70500 351.000
26.75000 361.000
26.79500 356.000
26.84000 331.000
26.88500 360.000
26.93000 412.000
26.97500 375.000
27.02000 381.000
27.06500 369.000
27.11000 368.000
27.15500 378.000
27.20000 398.000
27.24500 379.000
27.29000 467.000
27.33500 425.000
27.38000 448.000
27.42500 486.000
27.47000 512.000
27.51500 575.000
27.56000 654.000
27.60500 806.000
27.65000 1014.000
27.69500 1217.000
27.74000 1437.000
27.78500 1540.000
27.83000 1425.000
27.87500 1338.000
27.92000 1250.000
27.96500 1163.000
28.01000 1153.000
28.05500 990.000
28.10000 944.000
28.14500 829.000
28.19000 801.000
28.23500 720.000
28.28000 700.000
28.32500 612.000
28.37000 554.000
28.41500 588.000
28.46000 518.000
28.50500 526.000
28.55000 469.000
28.59500 499.000
28.64000 435.000
28.68500 419.000
28.73000 432.000
28.77500 405.000
28.82000 394.000
28.86500 354.000
28.91000 377.000
28.95500 368.000
29.00000 342.000
29.04500 373.000
29.09000 397.000
29.13500 370.000
29.18000 389.000
29.22500 342.000
29.27000 341.000
29.31500 333.000
29.36000 308.000
29.40500 309.000
29.45000 301.000
29.49500 302.000
29.54000 309.000
29.58500 324.000
29.63000 322.000
29.67500 298.000
29.72000 294.000
29.76500 303.000
29.81000 306.000
29.85500 300.000
29.90000 298.000
29.94500 307.000
29.99000 257.000
30.03500 282.000
30.08000 276.000
30.12500 280.000
30.17000 305.000
30.21500 291.000
30.26000 300.000
30.30500 324.000
30.35000 312.000
30.39500 301.000
30.44000 316.000
30.48500 295.000
30.53000 301.000
30.57500 304.000
30.62000 296.000
30.66500 313.000
30.71000 292.000
30.75500 310.000
30.80000 283.000
30.84500 276.000
30.89000 274.000
30.93500 290.000
30.98000 246.000
31.02500 253.000
31.07000 241.000
31.11500 249.000
31.16000 244.000
31.20500 264.000
31.25000 229.000
31.29500 254.000
31.34000 253.000
31.38500 266.000
31.43000 235.000
31.47500 255.000
31.52000 256.000
31.56500 251.000
31.61000 279.000
31.65500 261.000
31.70000 258.000
31.74500 263.000
31.79000 248.000
31.83500 273.000
31.88000 266.000
31.92500 236.000
31.97000 248.000
32.01500 224.000
32.06000 270.000
32.10500 244.000
32.15000 257.000
32.19500 257.000
32.24000 254.000
32.28500 302.000
32.33000 310.000
32.37500 321.000
32.42000 330.000
32.46500 310.000
32.51000 239.000
32.55500 227.000
32.60000 220.000
32.64500 208.000
32.69000 213.000
32.73500 186.000
32.78000 182.000
32.82500 200.000
32.87000 188.000
32.91500 191.000
32.96000 191.000
33.00500 186.000
33.05000 182.000
33.09500 172.000
33.14000 186.000
33.18500 180.000
33.23000 180.000
33.27500 163.000
33.32000 175.000
33.36500 158.000
33.41000 181.000
33.45500 185.000
33.50000 176.000
33.54500 177.000
33.59000 159.000
33.63500 188.000
33.68000 190.000
33.72500 172.000
33.77000 166.000
33.81500 191.000
33.86000 175.000
33.90500 168.000
33.95000 178.000
33.99500 166.000
34.04000 171.000
34.08500 189.000
34.13000 180.000
34.17500 152.000
34.22000 191.000
34.26500 168.000
34.31000 158.000
34.35500 174.000
34.40000 170.000
34.44500 185.000
34.49000 175.000
34.53500 150.000
34.58000 179.000
34.62500 186.000
34.67000 158.000
34.71500 161.000
34.76000 180.000
34.80500 179.000
34.85000 163.000
34.89500 195.000
34.94000 185.000
34.98500 192.000
35.03000 169.000
35.07500 175.000
35.12000 208.000
35.16500 185.000
35.21000 205.000
35.25500 227.000
35.30000 208.000
35.34500 253.000
35.39000 287.000
35.43500 321.000
35.48000 394.000
35.52500 372.000
35.57000 340.000
35.61500 235.000
35.66000 234.000
35.70500 215.000
35.75000 199.000
35.79500 197.000
35.84000 202.000
35.88500 200.000
35.93000 189.000
35.97500 180.000
36.02000 182.000
36.06500 193.000
36.11000 194.000
36.15500 198.000
36.20000 207.000
36.24500 194.000
36.29000 222.000
36.33500 185.000
36.38000 227.000
36.42500 215.000
36.47000 212.000
36.51500 235.000
36.56000 208.000
36.60500 236.000
36.65000 219.000
36.69500 189.000
36.74000 189.000
36.78500 208.000
36.83000 180.000
36.87500 186.000
36.92000 185.000
36.96500 175.000
37.01000 183.000
37.05500 170.000
37.10000 150.000
37.14500 172.000
37.19000 195.000
37.23500 191.000
37.28000 210.000
37.32500 205.000
37.37000 207.000
37.41500 218.000
37.46000 221.000
37.50500 198.000
37.55000 187.000
37.59500 215.000
37.64000 193.000
37.68500 206.000
37.73000 203.000
37.77500 193.000
37.82000 201.000
37.86500 185.000
37.91000 186.000
37.95500 176.000
38.00000 179.000
38.04500 178.000
38.09000 179.000
38.13500 192.000
38.18000 198.000
38.22500 186.000
38.27000 168.000
38.31500 182.000
38.36000 185.000
38.40500 183.000
38.45000 196.000
38.49500 173.000
38.54000 177.000
38.58500 173.000
38.63000 211.000
38.67500 209.000
38.72000 196.000
38.76500 197.000
38.81000 184.000
38.85500 165.000
38.90000 166.000
38.94500 194.000
38.99000 170.000
39.03500 185.000
39.08000 151.000
39.12500 157.000
39.17000 139.000
39.21500 162.000
39.26000 165.000
39.30500 148.000
39.35000 150.000
39.39500 141.000
39.44000 141.000
39.48500 159.000
39.53000 161.000
39.57500 167.000
39.62000 146.000
39.66500 155.000
39.71000 174.000
39.75500 139.000
39.80000 160.000
39.84500 164.000
39.89000 180.000
39.93500 175.000
39.98000 159.000
40.02500 184.000
40.07000 187.000
40.11500 172.000
40.16000 185.000
40.20500 181.000
40.25000 168.000
40.29500 159.000
40.34000 192.000
40.38500 193.000
40.43000 161.000
40.47500 173.000
40.52000 157.000
40.56500 163.000
40.61000 169.000
40.65500 162.000
40.70000 154.000
40.74500 170.000
40.79000 154.000
40.83500 152.000
40.88000 165.000
40.92500 156.000
40.97000 147.000
41.01500 155.000
41.06000 145.000
41.10500 158.000
41.15000 144.000
41.19500 163.000
41.24000 138.000
41.28500 143.000
41.33000 147.000
41.37500 142.000
41.42000 142.000
41.46500 136.000
41.51000 159.000
41.55500 143.000
41.60000 148.000
41.64500 148.000
41.69000 126.000
41.73500 130.000
41.78000 133.000
41.82500 134.000
41.87000 153.000
41.91500 135.000
41.96000 134.000
42.00500 143.000
42.05000 119.000
42.09500 129.000
42.14000 145.000
42.18500 138.000
42.23000 140.000
42.27500 139.000
42.32000 125.000
42.36500 128.000
42.41000 129.000
42.45500 129.000
42.50000 149.000
42.54500 153.000
42.59000 151.000
42.63500 139.000
42.68000 156.000
42.72500 157.000
42.77000 160.000
42.81500 156.000
42.86000 150.000
42.90500 149.000
42.95000 161.000
42.99500 145.000
43.04000 192.000
43.08500 188.000
43.13000 206.000
43.17500 239.000
43.22000 226.000
43.26500 239.000
43.31000 261.000
43.35500 244.000
43.40000 228.000
43.44500 193.000
43.49000 190.000
43.53500 193.000
43.58000 180.000
43.62500 177.000
43.67000 174.000
43.71500 185.000
43.76000 174.000
43.80500 159.000
43.85000 150.000
43.89500 161.000
43.94000 144.000
43.98500 163.000
44.03000 163.000
44.07500 152.000
44.12000 164.000
44.16500 158.000
44.21000 160.000
44.25500 143.000
44.30000 175.000
44.34500 167.000
44.39000 180.000
44.43500 193.000
44.48000 180.000
44.52500 190.000
44.57000 182.000
44.61500 185.000
44.66000 174.000
44.70500 179.000
44.75000 156.000
44.79500 163.000
44.84000 147.000
44.88500 168.000
44.93000 159.000
44.97500 178.000
45.02000 159.000
45.06500 149.000
45.11000 158.000
45.15500 163.000
45.20000 168.000
45.24500 190.000
45.29000 145.000
45.33500 145.000
45.38000 154.000
45.42500 155.000
45.47000 174.000
45.51500 181.000
45.56000 166.000
45.60500 155.000
45.65000 156.000
45.69500 167.000
45.74000 131.000
45.78500 134.000
45.83000 149.000
45.87500 154.000
45.92000 163.000
45.96500 161.000
46.01000 160.000
46.05500 155.000
46.10000 150.000
46.14500 183.000
46.19000 152.000
46.23500 159.000
46.28000 145.000
46.32500 140.000
46.37000 150.000
46.41500 145.000
46.46000 152.000
46.50500 153.000
46.55000 139.000
46.59500 137.000
46.64000 133.000
46.68500 142.000
46.73000 153.000
46.77500 153.000
46.82000 145.000
46.86500 134.000
46.91000 144.000
46.95500 138.000
47.00000 139.000
47.04500 128.000
47.09000 153.000
47.13500 139.000
47.18000 150.000
47.22500 137.000
47.27000 135.000
47.31500 129.000
47.36000 132.000
47.40500 120.000
47.45000 114.000
47.49500 126.000
47.54000 116.000
47.58500 119.000
47.63000 121.000
47.67500 105.000
47.72000 123.000
47.76500 117.000
47.81000 115.000
47.85500 103.000
47.90000 127.000
47.94500 113.000
47.99000 128.000
48.03500 101.000
48.08000 130.000
48.12500 136.000
48.17000 116.000
48.21500 117.000
48.26000 133.000
48.30500 126.000
48.35000 108.000
48.39500 130.000
48.44000 111.000
48.48500 91.000
48.53000 102.000
48.57500 104.000
48.62000 117.000
48.66500 105.000
48.71000 105.000
48.75500 103.000
48.80000 119.000
48.84500 111.000
48.89000 127.000
48.93500 106.000
48.98000 111.000
49.02500 113.000
49.07000 107.000
49.11500 118.000
49.16000 109.000
49.20500 103.000
49.25000 95.000
49.29500 112.000
49.34000 129.000
49.38500 112.000
49.43000 116.000
49.47500 102.000
49.52000 104.000
49.56500 109.000
49.61000 119.000
49.65500 105.000
49.70000 99.000
49.74500 105.000
49.79000 121.000
49.83500 110.000
49.88000 105.000
49.92500 102.000
49.97000 119.000
50.01500 125.000
50.06000 124.000
50.10500 141.000
50.15000 124.000
50.19500 141.000
50.24000 119.000
50.28500 115.000
50.33000 125.000
50.37500 110.000
50.42000 116.000
50.46500 119.000
50.51000 111.000
50.55500 133.000
50.60000 118.000
50.64500 119.000
50.69000 117.000
50.73500 118.000
50.78000 122.000
50.82500 107.000
50.87000 126.000
50.91500 127.000
50.96000 125.000
51.00500 118.000
51.05000 131.000
51.09500 123.000
51.14000 119.000
51.18500 117.000
51.23000 118.000
51.27500 120.000
51.32000 108.000
51.36500 125.000
51.41000 109.000
51.45500 121.000
51.50000 105.000
51.54500 107.000
51.59000 113.000
51.63500 134.000
51.68000 128.000
51.72500 110.000
51.77000 101.000
51.81500 113.000
51.86000 110.000
51.90500 126.000
51.95000 118.000
51.99500 123.000
52.04000 117.000
52.08500 102.000
52.13000 115.000
52.17500 95.000
52.22000 94.000
52.26500 106.000
52.31000 121.000
52.35500 116.000
52.40000 112.000
52.44500 94.000
52.49000 106.000
52.53500 120.000
52.58000 105.000
52.62500 117.000
52.67000 115.000
52.71500 113.000
52.76000 132.000
52.80500 123.000
52.85000 124.000
52.89500 112.000
52.94000 138.000
52.98500 130.000
53.03000 124.000
53.07500 125.000
53.12000 116.000
53.16500 115.000
53.21000 122.000
53.25500 129.000
53.30000 112.000
53.34500 118.000
53.39000 121.000
53.43500 104.000
53.48000 104.000
53.52500 122.000
53.57000 94.000
53.61500 103.000
53.66000 120.000
53.70500 113.000
53.75000 118.000
53.79500 111.000
53.84000 99.000
53.88500 99.000
53.93000 115.000
53.97500 112.000
54.02000 99.000
54.06500 93.000
54.11000 105.000
54.15500 107.000
54.20000 115.000
54.24500 115.000
54.29000 110.000
54.33500 103.000
54.38000 126.000
54.42500 118.000
54.47000 110.000
54.51500 102.000
54.56000 118.000
54.60500 122.000
54.65000 121.000
54.69500 115.000
54.74000 108.000
54.78500 97.000
54.83000 110.000
54.87500 106.000
54.92000 96.000
54.96500 104.000
55.01000 95.000
55.05500 103.000
55.10000 96.000
55.14500 108.000
55.19000 98.000
55.23500 95.000
55.28000 98.000
55.32500 96.000
55.37000 105.000
55.41500 99.000
55.46000 99.000
55.50500 96.000
55.55000 103.000
55.59500 94.000
55.64000 87.000
55.68500 96.000
55.73000 92.000
55.77500 97.000
55.82000 92.000
55.86500 111.000
55.91000 99.000
55.95500 101.000
56.00000 112.000
56.04500 95.000
56.09000 121.000
56.13500 98.000
56.18000 105.000
56.22500 119.000
56.27000 104.000
56.31500 100.000
56.36000 111.000
56.40500 92.000
56.45000 110.000
56.49500 97.000
56.54000 97.000
56.58500 106.000
56.63000 114.000
56.67500 89.000
56.72000 115.000
56.76500 98.000
56.81000 112.000
56.85500 98.000
56.90000 104.000
56.94500 100.000
56.99000 107.000
57.03500 102.000
57.08000 90.000
57.12500 114.000
57.17000 106.000
57.21500 108.000
57.26000 128.000
57.30500 116.000
57.35000 144.000
57.39500 116.000
57.44000 113.000
57.48500 123.000
57.53000 130.000
57.57500 126.000
57.62000 120.000
57.66500 117.000
57.71000 116.000
57.75500 122.000
57.80000 109.000
57.84500 115.000
57.89000 119.000
57.93500 115.000
57.98000 108.000
58.02500 115.000
58.07000 109.000
58.11500 127.000
58.16000 99.000
58.20500 113.000
58.25000 114.000
58.29500 96.000
58.34000 117.000
58.38500 110.000
58.43000 134.000
58.47500 110.000
58.52000 102.000
58.56500 103.000
58.61000 99.000
58.65500 97.000
58.70000 95.000
58.74500 100.000
58.79000 85.000
58.83500 96.000
58.88000 103.000
58.92500 106.000
58.97000 87.000
59.01500 100.000
59.06000 102.000
59.10500 125.000
59.15000 100.000
59.19500 108.000
59.24000 100.000
59.28500 112.000
59.33000 103.000
59.37500 117.000
59.42000 106.000
59.46500 110.000
59.51000 118.000
59.55500 97.000
59.60000 90.000
59.64500 119.000
59.69000 92.000
59.73500 107.000
59.78000 104.000
59.82500 85.000
59.87000 86.000
59.91500 88.000
59.96000 105.000
60.00500 85.000
60.05000 90.000
60.09500 86.000
60.14000 93.000
60.18500 96.000
60.23000 98.000
60.27500 93.000
60.32000 113.000
60.36500 91.000
60.41000 103.000
60.45500 106.000
60.50000 95.000
60.54500 108.000
60.59000 83.000
60.63500 97.000
60.68000 100.000
60.72500 106.000
60.77000 94.000
60.81500 107.000
60.86000 97.000
60.90500 102.000
60.95000 101.000
60.99500 94.000
61.04000 106.000
61.08500 94.000
61.13000 90.000
61.17500 113.000
61.22000 87.000
61.26500 102.000
61.31000 99.000
61.35500 99.000
61.40000 93.000
61.44500 93.000
61.49000 106.000
61.53500 101.000
61.58000 100.000
61.62500 93.000
61.67000 100.000
61.71500 87.000
61.76000 95.000
61.80500 95.000
61.85000 108.000
61.89500 101.000
61.94000 81.000
61.98500 75.000