File: ISoD/xrd_data/HSC196_NM_range_2.xy
2.00000 5.000
2.04500 2.000
2.09000 2.000
2.13500 4.000
2.18000 4.000
2.22500 4.000
2.27000 6.000
2.31500 6.000
2.36000 8.000
2.40500 6.000
2.45000 4.000
2.49500 4.000
2.54000 2.000
2.58500 4.000
2.63000 2.000
2.67500 5.000
2.72000 13.000
2.76500 31.000
2.81000 71.000
2.85500 137.000
2.90000 222.000
2.94500 265.000
2.99000 262.000
3.03500 247.000
3.08000 267.000
3.12500 273.000
3.17000 281.000
3.21500 263.000
3.26000 299.000
3.30500 289.000
3.35000 272.000
3.39500 264.000
3.44000 293.000
3.48500 308.000
3.53000 290.000
3.57500 291.000
3.62000 307.000
3.66500 299.000
3.71000 309.000
3.75500 349.000
3.80000 300.000
3.84500 315.000
3.89000 311.000
3.93500 325.000
3.98000 325.000
4.02500 301.000
4.07000 346.000
4.11500 341.000
4.16000 351.000
4.20500 346.000
4.25000 320.000
4.29500 329.000
4.34000 380.000
4.38500 338.000
4.43000 366.000
4.47500 357.000
4.52000 342.000
4.56500 357.000
4.61000 355.000
4.65500 371.000
4.70000 346.000
4.74500 373.000
4.79000 375.000
4.83500 392.000
4.88000 360.000
4.92500 360.000
4.97000 338.000
5.01500 390.000
5.06000 381.000
5.10500 356.000
5.15000 400.000
5.19500 401.000
5.24000 373.000
5.28500 379.000
5.33000 360.000
5.37500 397.000
5.42000 396.000
5.46500 394.000
5.51000 385.000
5.55500 422.000
5.60000 425.000
5.64500 376.000
5.69000 402.000
5.73500 402.000
5.78000 430.000
5.82500 405.000
5.87000 405.000
5.91500 388.000
5.96000 437.000
6.00500 423.000
6.05000 401.000
6.09500 439.000
6.14000 421.000
6.18500 411.000
6.23000 447.000
6.27500 404.000
6.32000 440.000
6.36500 435.000
6.41000 420.000
6.45500 420.000
6.50000 416.000
6.54500 433.000
6.59000 437.000
6.63500 431.000
6.68000 456.000
6.72500 468.000
6.77000 444.000
6.81500 432.000
6.86000 450.000
6.90500 453.000
6.95000 437.000
6.99500 494.000
7.04000 424.000
7.08500 440.000
7.13000 453.000
7.17500 462.000
7.22000 469.000
7.26500 460.000
7.31000 478.000
7.35500 490.000
7.40000 460.000
7.44500 471.000
7.49000 481.000
7.53500 489.000
7.58000 520.000
7.62500 548.000
7.67000 557.000
7.71500 662.000
7.76000 776.000
7.80500 880.000
7.85000 1044.000
7.89500 1302.000
7.94000 1760.000
7.98500 1801.000
8.03000 1001.000
8.07500 815.000
8.12000 679.000
8.16500 641.000
8.21000 593.000
8.25500 604.000
8.30000 576.000
8.34500 553.000
8.39000 579.000
8.43500 559.000
8.48000 547.000
8.52500 546.000
8.57000 541.000
8.61500 530.000
8.66000 554.000
8.70500 517.000
8.75000 547.000
8.79500 567.000
8.84000 512.000
8.88500 540.000
8.93000 532.000
8.97500 533.000
9.02000 544.000
9.06500 533.000
9.11000 512.000
9.15500 554.000
9.20000 521.000
9.24500 545.000
9.29000 548.000
9.33500 535.000
9.38000 551.000
9.42500 531.000
9.47000 543.000
9.51500 554.000
9.56000 580.000
9.60500 520.000
9.65000 572.000
9.69500 550.000
9.74000 613.000
9.78500 599.000
9.83000 670.000
9.87500 680.000
9.92000 731.000
9.96500 807.000
10.01000 885.000
10.05500 961.000
10.10000 954.000
10.14500 944.000
10.19000 798.000
10.23500 736.000
10.28000 623.000
10.32500 609.000
10.37000 578.000
10.41500 577.000
10.46000 561.000
10.50500 560.000
10.55000 522.000
10.59500 525.000
10.64000 502.000
10.68500 525.000
10.73000 531.000
10.77500 528.000
10.82000 503.000
10.86500 477.000
10.91000 503.000
10.95500 510.000
11.00000 491.000
11.04500 513.000
11.09000 529.000
11.13500 525.000
11.18000 519.000
11.22500 515.000
11.27000 481.000
11.31500 519.000
11.36000 528.000
11.40500 516.000
11.45000 487.000
11.49500 543.000
11.54000 491.000
11.58500 503.000
11.63000 530.000
11.67500 516.000
11.72000 461.000
11.76500 503.000
11.81000 486.000
11.85500 470.000
11.90000 464.000
11.94500 502.000
11.99000 512.000
12.03500 490.000
12.08000 518.000
12.12500 473.000
12.17000 513.000
12.21500 529.000
12.26000 504.000
12.30500 508.000
12.35000 457.000
12.39500 476.000
12.44000 494.000
12.48500 499.000
12.53000 526.000
12.57500 486.000
12.62000 491.000
12.66500 517.000
12.71000 499.000
12.75500 495.000
12.80000 508.000
12.84500 472.000
12.89000 493.000
12.93500 469.000
12.98000 524.000
13.02500 455.000
13.07000 533.000
13.11500 499.000
13.16000 491.000
13.20500 478.000
13.25000 504.000
13.29500 511.000
13.34000 492.000
13.38500 486.000
13.43000 513.000
13.47500 485.000
13.52000 513.000
13.56500 488.000
13.61000 491.000
13.65500 495.000
13.70000 516.000
13.74500 496.000
13.79000 484.000
13.83500 487.000
13.88000 517.000
13.92500 487.000
13.97000 463.000
14.01500 490.000
14.06000 470.000
14.10500 480.000
14.15000 498.000
14.19500 501.000
14.24000 489.000
14.28500 498.000
14.33000 480.000
14.37500 510.000
14.42000 471.000
14.46500 457.000
14.51000 491.000
14.55500 519.000
14.60000 500.000
14.64500 488.000
14.69000 516.000
14.73500 469.000
14.78000 490.000
14.82500 510.000
14.87000 511.000
14.91500 518.000
14.96000 534.000
15.00500 572.000
15.05000 556.000
15.09500 575.000
15.14000 583.000
15.18500 566.000
15.23000 608.000
15.27500 561.000
15.32000 567.000
15.36500 519.000
15.41000 558.000
15.45500 509.000
15.50000 540.000
15.54500 486.000
15.59000 498.000
15.63500 485.000
15.68000 490.000
15.72500 488.000
15.77000 479.000
15.81500 490.000
15.86000 468.000
15.90500 477.000
15.95000 519.000
15.99500 452.000
16.04000 508.000
16.08500 510.000
16.13000 488.000
16.17500 484.000
16.22000 462.000
16.26500 482.000
16.31000 496.000
16.35500 442.000
16.40000 463.000
16.44500 488.000
16.49000 466.000
16.53500 473.000
16.58000 494.000
16.62500 489.000
16.67000 492.000
16.71500 464.000
16.76000 459.000
16.80500 512.000
16.85000 475.000
16.89500 500.000
16.94000 504.000
16.98500 513.000
17.03000 514.000
17.07500 481.000
17.12000 523.000
17.16500 471.000
17.21000 461.000
17.25500 484.000
17.30000 537.000
17.34500 458.000
17.39000 484.000
17.43500 461.000
17.48000 492.000
17.52500 526.000
17.57000 498.000
17.61500 499.000
17.66000 509.000
17.70500 504.000
17.75000 508.000
17.79500 515.000
17.84000 496.000
17.88500 537.000
17.93000 482.000
17.97500 506.000
18.02000 512.000
18.06500 489.000
18.11000 516.000
18.15500 495.000
18.20000 519.000
18.24500 485.000
18.29000 510.000
18.33500 523.000
18.38000 549.000
18.42500 559.000
18.47000 580.000
18.51500 645.000
18.56000 654.000
18.60500 719.000
18.65000 698.000
18.69500 675.000
18.74000 612.000
18.78500 563.000
18.83000 584.000
18.87500 541.000
18.92000 534.000
18.96500 543.000
19.01000 518.000
19.05500 523.000
19.10000 537.000
19.14500 499.000
19.19000 535.000
19.23500 483.000
19.28000 489.000
19.32500 485.000
19.37000 514.000
19.41500 536.000
19.46000 479.000
19.50500 511.000
19.55000 503.000
19.59500 535.000
19.64000 496.000
19.68500 503.000
19.73000 528.000
19.77500 525.000
19.82000 520.000
19.86500 498.000
19.91000 534.000
19.95500 517.000
20.00000 528.000
20.04500 542.000
20.09000 535.000
20.13500 466.000
20.18000 554.000
20.22500 525.000
20.27000 525.000
20.31500 505.000
20.36000 536.000
20.40500 527.000
20.45000 515.000
20.49500 537.000
20.54000 531.000
20.58500 548.000
20.63000 519.000
20.67500 520.000
20.72000 538.000
20.76500 550.000
20.81000 495.000
20.85500 545.000
20.90000 573.000
20.94500 551.000
20.99000 527.000
21.03500 555.000
21.08000 550.000
21.12500 533.000
21.17000 538.000
21.21500 559.000
21.26000 568.000
21.30500 543.000
21.35000 571.000
21.39500 565.000
21.44000 585.000
21.48500 568.000
21.53000 597.000
21.57500 580.000
21.62000 602.000
21.66500 578.000
21.71000 596.000
21.75500 604.000
21.80000 619.000
21.84500 663.000
21.89000 712.000
21.93500 694.000
21.98000 707.000
22.02500 726.000
22.07000 710.000
22.11500 748.000
22.16000 678.000
22.20500 702.000
22.25000 680.000
22.29500 651.000
22.34000 671.000
22.38500 624.000
22.43000 634.000
22.47500 659.000
22.52000 656.000
22.56500 647.000
22.61000 701.000
22.65500 667.000
22.70000 701.000
22.74500 715.000
22.79000 757.000
22.83500 828.000
22.88000 849.000
22.92500 839.000
22.97000 877.000
23.01500 865.000
23.06000 851.000
23.10500 797.000
23.15000 783.000
23.19500 780.000
23.24000 698.000
23.28500 718.000
23.33000 679.000
23.37500 689.000
23.42000 708.000
23.46500 655.000
23.51000 655.000
23.55500 655.000
23.60000 642.000
23.64500 626.000
23.69000 650.000
23.73500 660.000
23.78000 686.000
23.82500 674.000
23.87000 662.000
23.91500 656.000
23.96000 686.000
24.00500 673.000
24.05000 734.000
24.09500 740.000
24.14000 683.000
24.18500 713.000
24.23000 697.000
24.27500 679.000
24.32000 752.000
24.36500 689.000
24.41000 751.000
24.45500 763.000
24.50000 794.000
24.54500 807.000
24.59000 772.000
24.63500 797.000
24.68000 776.000
24.72500 775.000
24.77000 750.000
24.81500 770.000
24.86000 761.000
24.90500 760.000
24.95000 745.000
24.99500 773.000
25.04000 807.000
25.08500 819.000
25.13000 743.000
25.17500 736.000
25.22000 781.000
25.26500 751.000
25.31000 757.000
25.35500 757.000
25.40000 843.000
25.44500 807.000
25.49000 868.000
25.53500 839.000
25.58000 903.000
25.62500 850.000
25.67000 895.000
25.71500 889.000
25.76000 895.000
25.80500 882.000
25.85000 891.000
25.89500 854.000
25.94000 844.000
25.98500 838.000
26.03000 812.000
26.07500 798.000
26.12000 839.000
26.16500 828.000
26.21000 830.000
26.25500 848.000
26.30000 794.000
26.34500 809.000
26.39000 864.000
26.43500 848.000
26.48000 865.000
26.52500 868.000
26.57000 863.000
26.61500 882.000
26.66000 928.000
26.70500 868.000
26.75000 844.000
26.79500 899.000
26.84000 898.000
26.88500 917.000
26.93000 948.000
26.97500 997.000
27.02000 967.000
27.06500 993.000
27.11000 1036.000
27.15500 1065.000
27.20000 1087.000
27.24500 1072.000
27.29000 1140.000
27.33500 1116.000
27.38000 1238.000
27.42500 1303.000
27.47000 1449.000
27.51500 1679.000
27.56000 2064.000
27.60500 2388.000
27.65000 3053.000
27.69500 3485.000
27.74000 3801.000
27.78500 3653.000
27.83000 3231.000
27.87500 2959.000
27.92000 2764.000
27.96500 2604.000
28.01000 2553.000
28.05500 2365.000
28.10000 2216.000
28.14500 2052.000
28.19000 1892.000
28.23500 1793.000
28.28000 1650.000
28.32500 1575.000
28.37000 1387.000
28.41500 1273.000
28.46000 1284.000
28.50500 1288.000
28.55000 1161.000
28.59500 1108.000
28.64000 1055.000
28.68500 1029.000
28.73000 1039.000
28.77500 946.000
28.82000 949.000
28.86500 965.000
28.91000 938.000
28.95500 937.000
29.00000 917.000
29.04500 923.000
29.09000 961.000
29.13500 976.000
29.18000 967.000
29.22500 853.000
29.27000 886.000
29.31500 827.000
29.36000 781.000
29.40500 804.000
29.45000 763.000
29.49500 762.000
29.54000 752.000
29.58500 758.000
29.63000 766.000
29.67500 781.000
29.72000 771.000
29.76500 795.000
29.81000 786.000
29.85500 762.000
29.90000 733.000
29.94500 689.000
29.99000 777.000
30.03500 740.000
30.08000 732.000
30.12500 753.000
30.17000 732.000
30.21500 803.000
30.26000 791.000
30.30500 776.000
30.35000 825.000
30.39500 810.000
30.44000 814.000
30.48500 826.000
30.53000 795.000
30.57500 751.000
30.62000 775.000
30.66500 767.000
30.71000 776.000
30.75500 713.000
30.80000 709.000
30.84500 745.000
30.89000 727.000
30.93500 713.000
30.98000 676.000
31.02500 665.000
31.07000 649.000
31.11500 607.000
31.16000 651.000
31.20500 648.000
31.25000 623.000
31.29500 656.000
31.34000 658.000
31.38500 650.000
31.43000 673.000
31.47500 641.000
31.52000 673.000
31.56500 692.000
31.61000 647.000
31.65500 666.000
31.70000 635.000
31.74500 588.000
31.79000 639.000
31.83500 661.000
31.88000 619.000
31.92500 648.000
31.97000 666.000
32.01500 657.000
32.06000 621.000
32.10500 616.000
32.15000 670.000
32.19500 668.000
32.24000 660.000
32.28500 804.000
32.33000 778.000
32.37500 824.000
32.42000 738.000
32.46500 692.000
32.51000 606.000
32.55500 607.000
32.60000 544.000
32.64500 528.000
32.69000 539.000
32.73500 511.000
32.78000 526.000
32.82500 533.000
32.87000 484.000
32.91500 476.000
32.96000 461.000
33.00500 515.000
33.05000 466.000
33.09500 458.000
33.14000 457.000
33.18500 468.000
33.23000 477.000
33.27500 453.000
33.32000 459.000
33.36500 477.000
33.41000 477.000
33.45500 443.000
33.50000 432.000
33.54500 439.000
33.59000 456.000
33.63500 425.000
33.68000 458.000
33.72500 452.000
33.77000 418.000
33.81500 433.000
33.86000 463.000
33.90500 447.000
33.95000 451.000
33.99500 471.000
34.04000 462.000
34.08500 415.000
34.13000 442.000
34.17500 423.000
34.22000 416.000
34.26500 462.000
34.31000 436.000
34.35500 451.000
34.40000 450.000
34.44500 441.000
34.49000 441.000
34.53500 440.000
34.58000 415.000
34.62500 409.000
34.67000 469.000
34.71500 460.000
34.76000 444.000
34.80500 453.000
34.85000 455.000
34.89500 459.000
34.94000 465.000
34.98500 441.000
35.03000 480.000
35.07500 461.000
35.12000 495.000
35.16500 495.000
35.21000 492.000
35.25500 536.000
35.30000 584.000
35.34500 613.000
35.39000 675.000
35.43500 925.000
35.48000 976.000
35.52500 888.000
35.57000 749.000
35.61500 628.000
35.66000 532.000
35.70500 532.000
35.75000 478.000
35.79500 491.000
35.84000 496.000
35.88500 497.000
35.93000 478.000
35.97500 495.000
36.02000 471.000
36.06500 495.000
36.11000 523.000
36.15500 540.000
36.20000 552.000
36.24500 520.000
36.29000 530.000
36.33500 487.000
36.38000 523.000
36.42500 546.000
36.47000 538.000
36.51500 556.000
36.56000 555.000
36.60500 528.000
36.65000 573.000
36.69500 524.000
36.74000 508.000
36.78500 513.000
36.83000 445.000
36.87500 457.000
36.92000 457.000
36.96500 460.000
37.01000 455.000
37.05500 490.000
37.10000 483.000
37.14500 469.000
37.19000 503.000
37.23500 503.000
37.28000 510.000
37.32500 536.000
37.37000 525.000
37.41500 518.000
37.46000 531.000
37.50500 514.000
37.55000 528.000
37.59500 492.000
37.64000 535.000
37.68500 464.000
37.73000 480.000
37.77500 466.000
37.82000 504.000
37.86500 461.000
37.91000 484.000
37.95500 460.000
38.00000 464.000
38.04500 459.000
38.09000 456.000
38.13500 449.000
38.18000 473.000
38.22500 472.000
38.27000 464.000
38.31500 434.000
38.36000 492.000
38.40500 462.000
38.45000 477.000
38.49500 450.000
38.54000 463.000
38.58500 536.000
38.63000 477.000
38.67500 512.000
38.72000 448.000
38.76500 463.000
38.81000 446.000
38.85500 455.000
38.90000 475.000
38.94500 395.000
38.99000 416.000
39.03500 452.000
39.08000 425.000
39.12500 404.000
39.17000 400.000
39.21500 387.000
39.26000 388.000
39.30500 412.000
39.35000 401.000
39.39500 392.000
39.44000 363.000
39.48500 360.000
39.53000 375.000
39.57500 396.000
39.62000 391.000
39.66500 386.000
39.71000 405.000
39.75500 427.000
39.80000 421.000
39.84500 409.000
39.89000 424.000
39.93500 434.000
39.98000 456.000
40.02500 468.000
40.07000 493.000
40.11500 457.000
40.16000 403.000
40.20500 420.000
40.25000 417.000
40.29500 433.000
40.34000 407.000
40.38500 400.000
40.43000 463.000
40.47500 450.000
40.52000 400.000
40.56500 456.000
40.61000 442.000
40.65500 418.000
40.70000 411.000
40.74500 428.000
40.79000 396.000
40.83500 360.000
40.88000 357.000
40.92500 375.000
40.97000 356.000
41.01500 391.000
41.06000 406.000
41.10500 371.000
41.15000 385.000
41.19500 369.000
41.24000 369.000
41.28500 369.000
41.33000 340.000
41.37500 357.000
41.42000 373.000
41.46500 388.000
41.51000 375.000
41.55500 336.000
41.60000 349.000
41.64500 329.000
41.69000 364.000
41.73500 383.000
41.78000 359.000
41.82500 371.000
41.87000 363.000
41.91500 337.000
41.96000 335.000
42.00500 369.000
42.05000 330.000
42.09500 364.000
42.14000 361.000
42.18500 360.000
42.23000 367.000
42.27500 364.000
42.32000 350.000
42.36500 346.000
42.41000 360.000
42.45500 352.000
42.50000 350.000
42.54500 354.000
42.59000 367.000
42.63500 389.000
42.68000 390.000
42.72500 372.000
42.77000 399.000
42.81500 373.000
42.86000 386.000
42.90500 407.000
42.95000 404.000
42.99500 448.000
43.04000 461.000
43.08500 531.000
43.13000 490.000
43.17500 550.000
43.22000 532.000
43.26500 641.000
43.31000 639.000
43.35500 604.000
43.40000 601.000
43.44500 508.000
43.49000 486.000
43.53500 437.000
43.58000 456.000
43.62500 455.000
43.67000 418.000
43.71500 423.000
43.76000 394.000
43.80500 411.000
43.85000 361.000
43.89500 371.000
43.94000 417.000
43.98500 389.000
44.03000 389.000
44.07500 380.000
44.12000 371.000
44.16500 412.000
44.21000 381.000
44.25500 435.000
44.30000 452.000
44.34500 439.000
44.39000 456.000
44.43500 441.000
44.48000 443.000
44.52500 429.000
44.57000 436.000
44.61500 434.000
44.66000 452.000
44.70500 409.000
44.75000 398.000
44.79500 397.000
44.84000 410.000
44.88500 382.000
44.93000 390.000
44.97500 395.000
45.02000 410.000
45.06500 412.000
45.11000 439.000
45.15500 399.000
45.20000 398.000
45.24500 380.000
45.29000 404.000
45.33500 415.000
45.38000 371.000
45.42500 379.000
45.47000 393.000
45.51500 396.000
45.56000 369.000
45.60500 368.000
45.65000 376.000
45.69500 380.000
45.74000 389.000
45.78500 376.000
45.83000 375.000
45.87500 344.000
45.92000 398.000
45.96500 381.000
46.01000 374.000
46.05500 356.000
46.10000 395.000
46.14500 393.000
46.19000 368.000
46.23500 394.000
46.28000 377.000
46.32500 388.000
46.37000 360.000
46.41500 377.000
46.46000 351.000
46.50500 343.000
46.55000 360.000
46.59500 349.000
46.64000 315.000
46.68500 330.000
46.73000 376.000
46.77500 348.000
46.82000 332.000
46.86500 338.000
46.91000 338.000
46.95500 326.000
47.00000 353.000
47.04500 334.000
47.09000 334.000
47.13500 344.000
47.18000 322.000
47.22500 310.000
47.27000 314.000
47.31500 316.000
47.36000 320.000
47.40500 320.000
47.45000 309.000
47.49500 315.000
47.54000 275.000
47.58500 313.000
47.63000 283.000
47.67500 300.000
47.72000 299.000
47.76500 283.000
47.81000 311.000
47.85500 289.000
47.90000 302.000
47.94500 298.000
47.99000 316.000
48.03500 292.000
48.08000 296.000
48.12500 309.000
48.17000 311.000
48.21500 308.000
48.26000 293.000
48.30500 320.000
48.35000 273.000
48.39500 281.000
48.44000 277.000
48.48500 262.000
48.53000 270.000
48.57500 321.000
48.62000 293.000
48.66500 283.000
48.71000 263.000
48.75500 297.000
48.80000 284.000
48.84500 264.000
48.89000 321.000
48.93500 291.000
48.98000 254.000
49.02500 279.000
49.07000 277.000
49.11500 268.000
49.16000 264.000
49.20500 247.000
49.25000 258.000
49.29500 299.000
49.34000 284.000
49.38500 290.000
49.43000 309.000
49.47500 257.000
49.52000 267.000
49.56500 265.000
49.61000 268.000
49.65500 294.000
49.70000 307.000
49.74500 254.000
49.79000 304.000
49.83500 279.000
49.88000 278.000
49.92500 276.000
49.97000 294.000
50.01500 294.000
50.06000 318.000
50.10500 316.000
50.15000 315.000
50.19500 312.000
50.24000 313.000
50.28500 285.000
50.33000 271.000
50.37500 274.000
50.42000 281.000
50.46500 280.000
50.51000 273.000
50.55500 287.000
50.60000 292.000
50.64500 306.000
50.69000 310.000
50.73500 289.000
50.78000 288.000
50.82500 269.000
50.87000 275.000
50.91500 287.000
50.96000 295.000
51.00500 301.000
51.05000 264.000
51.09500 307.000
51.14000 256.000
51.18500 270.000
51.23000 283.000
51.27500 305.000
51.32000 292.000
51.36500 270.000
51.41000 277.000
51.45500 294.000
51.50000 295.000
51.54500 298.000
51.59000 289.000
51.63500 280.000
51.68000 279.000
51.72500 291.000
51.77000 279.000
51.81500 301.000
51.86000 273.000
51.90500 285.000
51.95000 262.000
51.99500 264.000
52.04000 258.000
52.08500 287.000
52.13000 281.000
52.17500 282.000
52.22000 244.000
52.26500 230.000
52.31000 275.000
52.35500 247.000
52.40000 264.000
52.44500 276.000
52.49000 291.000
52.53500 287.000
52.58000 255.000
52.62500 262.000
52.67000 298.000
52.71500 287.000
52.76000 302.000
52.80500 292.000
52.85000 278.000
52.89500 279.000
52.94000 294.000
52.98500 282.000
53.03000 291.000
53.07500 303.000
53.12000 288.000
53.16500 313.000
53.21000 285.000
53.25500 276.000
53.30000 265.000
53.34500 252.000
53.39000 300.000
53.43500 269.000
53.48000 284.000
53.52500 274.000
53.57000 264.000
53.61500 271.000
53.66000 258.000
53.70500 270.000
53.75000 240.000
53.79500 275.000
53.84000 259.000
53.88500 267.000
53.93000 292.000
53.97500 300.000
54.02000 255.000
54.06500 263.000
54.11000 286.000
54.15500 280.000
54.20000 250.000
54.24500 283.000
54.29000 282.000
54.33500 271.000
54.38000 267.000
54.42500 236.000
54.47000 255.000
54.51500 266.000
54.56000 258.000
54.60500 272.000
54.65000 272.000
54.69500 278.000
54.74000 261.000
54.78500 245.000
54.83000 270.000
54.87500 240.000
54.92000 239.000
54.96500 265.000
55.01000 275.000
55.05500 248.000
55.10000 263.000
55.14500 244.000
55.19000 259.000
55.23500 265.000
55.28000 245.000
55.32500 262.000
55.37000 266.000
55.41500 252.000
55.46000 237.000
55.50500 246.000
55.55000 241.000
55.59500 249.000
55.64000 251.000
55.68500 224.000
55.73000 253.000
55.77500 255.000
55.82000 248.000
55.86500 258.000
55.91000 246.000
55.95500 268.000
56.00000 247.000
56.04500 235.000
56.09000 267.000
56.13500 250.000
56.18000 275.000
56.22500 242.000
56.27000 261.000
56.31500 257.000
56.36000 250.000
56.40500 241.000
56.45000 240.000
56.49500 255.000
56.54000 271.000
56.58500 256.000
56.63000 246.000
56.67500 262.000
56.72000 245.000
56.76500 252.000
56.81000 281.000
56.85500 236.000
56.90000 273.000
56.94500 261.000
56.99000 282.000
57.03500 279.000
57.08000 271.000
57.12500 265.000
57.17000 257.000
57.21500 261.000
57.26000 272.000
57.30500 303.000
57.35000 290.000
57.39500 302.000
57.44000 302.000
57.48500 286.000
57.53000 257.000
57.57500 275.000
57.62000 295.000
57.66500 297.000
57.71000 288.000
57.75500 278.000
57.80000 320.000
57.84500 289.000
57.89000 274.000
57.93500 270.000
57.98000 286.000
58.02500 273.000
58.07000 273.000
58.11500 289.000
58.16000 277.000
58.20500 272.000
58.25000 282.000
58.29500 275.000
58.34000 267.000
58.38500 280.000
58.43000 267.000
58.47500 264.000
58.52000 262.000
58.56500 240.000
58.61000 274.000
58.65500 257.000
58.70000 267.000
58.74500 243.000
58.79000 229.000
58.83500 262.000
58.88000 231.000
58.92500 285.000
58.97000 250.000
59.01500 230.000
59.06000 246.000
59.10500 241.000
59.15000 262.000
59.19500 253.000
59.24000 260.000
59.28500 230.000
59.33000 253.000
59.37500 276.000
59.42000 262.000
59.46500 232.000
59.51000 257.000
59.55500 224.000
59.60000 220.000
59.64500 249.000
59.69000 237.000
59.73500 246.000
59.78000 260.000
59.82500 222.000
59.87000 243.000
59.91500 232.000
59.96000 236.000
60.00500 232.000
60.05000 239.000
60.09500 233.000
60.14000 218.000
60.18500 247.000
60.23000 254.000
60.27500 235.000
60.32000 212.000
60.36500 231.000
60.41000 252.000
60.45500 242.000
60.50000 231.000
60.54500 238.000
60.59000 250.000
60.63500 231.000
60.68000 246.000
60.72500 218.000
60.77000 256.000
60.81500 255.000
60.86000 232.000
60.90500 218.000
60.95000 244.000
60.99500 247.000
61.04000 234.000
61.08500 247.000
61.13000 224.000
61.17500 243.000
61.22000 214.000
61.26500 233.000
61.31000 232.000
61.35500 221.000
61.40000 234.000
61.44500 205.000
61.49000 216.000
61.53500 231.000
61.58000 228.000
61.62500 210.000
61.67000 213.000
61.71500 237.000
61.76000 229.000
61.80500 227.000
61.85000 216.000
61.89500 222.000
61.94000 235.000
61.98500 235.000