File: ISoD/xrd_data/HSC196_NM_range_3.xy
2.00000 4.000
2.04500 1.000
2.09000 2.000
2.13500 3.000
2.18000 4.000
2.22500 5.000
2.27000 4.000
2.31500 3.000
2.36000 2.000
2.40500 4.000
2.45000 2.000
2.49500 4.000
2.54000 2.000
2.58500 4.000
2.63000 6.000
2.67500 4.000
2.72000 22.000
2.76500 24.000
2.81000 75.000
2.85500 131.000
2.90000 235.000
2.94500 250.000
2.99000 262.000
3.03500 239.000
3.08000 253.000
3.12500 293.000
3.17000 248.000
3.21500 275.000
3.26000 267.000
3.30500 277.000
3.35000 281.000
3.39500 268.000
3.44000 287.000
3.48500 283.000
3.53000 290.000
3.57500 293.000
3.62000 295.000
3.66500 281.000
3.71000 305.000
3.75500 302.000
3.80000 310.000
3.84500 292.000
3.89000 306.000
3.93500 319.000
3.98000 312.000
4.02500 316.000
4.07000 348.000
4.11500 331.000
4.16000 363.000
4.20500 315.000
4.25000 354.000
4.29500 348.000
4.34000 359.000
4.38500 341.000
4.43000 330.000
4.47500 338.000
4.52000 341.000
4.56500 358.000
4.61000 360.000
4.65500 369.000
4.70000 370.000
4.74500 350.000
4.79000 391.000
4.83500 368.000
4.88000 367.000
4.92500 380.000
4.97000 383.000
5.01500 377.000
5.06000 360.000
5.10500 387.000
5.15000 381.000
5.19500 380.000
5.24000 367.000
5.28500 353.000
5.33000 407.000
5.37500 394.000
5.42000 374.000
5.46500 388.000
5.51000 437.000
5.55500 407.000
5.60000 412.000
5.64500 402.000
5.69000 393.000
5.73500 388.000
5.78000 433.000
5.82500 409.000
5.87000 396.000
5.91500 435.000
5.96000 420.000
6.00500 429.000
6.05000 398.000
6.09500 424.000
6.14000 418.000
6.18500 445.000
6.23000 430.000
6.27500 417.000
6.32000 453.000
6.36500 453.000
6.41000 450.000
6.45500 421.000
6.50000 397.000
6.54500 458.000
6.59000 464.000
6.63500 437.000
6.68000 428.000
6.72500 451.000
6.77000 456.000
6.81500 425.000
6.86000 434.000
6.90500 454.000
6.95000 481.000
6.99500 449.000
7.04000 452.000
7.08500 465.000
7.13000 430.000
7.17500 450.000
7.22000 451.000
7.26500 463.000
7.31000 462.000
7.35500 471.000
7.40000 464.000
7.44500 480.000
7.49000 456.000
7.53500 487.000
7.58000 511.000
7.62500 556.000
7.67000 593.000
7.71500 658.000
7.76000 727.000
7.80500 849.000
7.85000 1023.000
7.89500 1335.000
7.94000 1782.000
7.98500 1791.000
8.03000 1071.000
8.07500 799.000
8.12000 738.000
8.16500 679.000
8.21000 590.000
8.25500 586.000
8.30000 588.000
8.34500 554.000
8.39000 566.000
8.43500 544.000
8.48000 573.000
8.52500 546.000
8.57000 557.000
8.61500 506.000
8.66000 531.000
8.70500 514.000
8.75000 571.000
8.79500 517.000
8.84000 551.000
8.88500 505.000
8.93000 528.000
8.97500 584.000
9.02000 505.000
9.06500 532.000
9.11000 562.000
9.15500 548.000
9.20000 541.000
9.24500 490.000
9.29000 557.000
9.33500 551.000
9.38000 536.000
9.42500 527.000
9.47000 516.000
9.51500 551.000
9.56000 564.000
9.60500 578.000
9.65000 536.000
9.69500 580.000
9.74000 574.000
9.78500 574.000
9.83000 630.000
9.87500 691.000
9.92000 749.000
9.96500 808.000
10.01000 931.000
10.05500 949.000
10.10000 985.000
10.14500 863.000
10.19000 822.000
10.23500 674.000
10.28000 682.000
10.32500 574.000
10.37000 560.000
10.41500 584.000
10.46000 542.000
10.50500 556.000
10.55000 556.000
10.59500 537.000
10.64000 518.000
10.68500 512.000
10.73000 541.000
10.77500 512.000
10.82000 510.000
10.86500 498.000
10.91000 515.000
10.95500 529.000
11.00000 505.000
11.04500 530.000
11.09000 494.000
11.13500 527.000
11.18000 516.000
11.22500 513.000
11.27000 532.000
11.31500 482.000
11.36000 524.000
11.40500 508.000
11.45000 482.000
11.49500 525.000
11.54000 465.000
11.58500 537.000
11.63000 481.000
11.67500 504.000
11.72000 505.000
11.76500 517.000
11.81000 513.000
11.85500 500.000
11.90000 505.000
11.94500 477.000
11.99000 510.000
12.03500 519.000
12.08000 530.000
12.12500 500.000
12.17000 501.000
12.21500 519.000
12.26000 468.000
12.30500 505.000
12.35000 495.000
12.39500 496.000
12.44000 467.000
12.48500 497.000
12.53000 478.000
12.57500 502.000
12.62000 514.000
12.66500 511.000
12.71000 510.000
12.75500 488.000
12.80000 517.000
12.84500 495.000
12.89000 518.000
12.93500 480.000
12.98000 487.000
13.02500 465.000
13.07000 481.000
13.11500 518.000
13.16000 502.000
13.20500 497.000
13.25000 490.000
13.29500 466.000
13.34000 510.000
13.38500 508.000
13.43000 511.000
13.47500 482.000
13.52000 497.000
13.56500 515.000
13.61000 471.000
13.65500 498.000
13.70000 446.000
13.74500 486.000
13.79000 503.000
13.83500 492.000
13.88000 519.000
13.92500 479.000
13.97000 484.000
14.01500 506.000
14.06000 476.000
14.10500 503.000
14.15000 515.000
14.19500 487.000
14.24000 468.000
14.28500 489.000
14.33000 472.000
14.37500 473.000
14.42000 525.000
14.46500 495.000
14.51000 472.000
14.55500 486.000
14.60000 467.000
14.64500 514.000
14.69000 484.000
14.73500 506.000
14.78000 507.000
14.82500 476.000
14.87000 540.000
14.91500 527.000
14.96000 549.000
15.00500 558.000
15.05000 521.000
15.09500 604.000
15.14000 568.000
15.18500 583.000
15.23000 583.000
15.27500 550.000
15.32000 551.000
15.36500 497.000
15.41000 532.000
15.45500 497.000
15.50000 497.000
15.54500 477.000
15.59000 497.000
15.63500 489.000
15.68000 503.000
15.72500 470.000
15.77000 483.000
15.81500 476.000
15.86000 499.000
15.90500 493.000
15.95000 469.000
15.99500 538.000
16.04000 486.000
16.08500 521.000
16.13000 489.000
16.17500 503.000
16.22000 498.000
16.26500 517.000
16.31000 465.000
16.35500 468.000
16.40000 487.000
16.44500 489.000
16.49000 511.000
16.53500 484.000
16.58000 488.000
16.62500 486.000
16.67000 453.000
16.71500 489.000
16.76000 509.000
16.80500 516.000
16.85000 501.000
16.89500 494.000
16.94000 443.000
16.98500 509.000
17.03000 499.000
17.07500 498.000
17.12000 495.000
17.16500 497.000
17.21000 487.000
17.25500 481.000
17.30000 512.000
17.34500 459.000
17.39000 487.000
17.43500 483.000
17.48000 495.000
17.52500 487.000
17.57000 447.000
17.61500 466.000
17.66000 481.000
17.70500 501.000
17.75000 513.000
17.79500 517.000
17.84000 524.000
17.88500 534.000
17.93000 499.000
17.97500 504.000
18.02000 511.000
18.06500 488.000
18.11000 510.000
18.15500 493.000
18.20000 520.000
18.24500 513.000
18.29000 503.000
18.33500 518.000
18.38000 546.000
18.42500 546.000
18.47000 575.000
18.51500 621.000
18.56000 608.000
18.60500 704.000
18.65000 685.000
18.69500 667.000
18.74000 634.000
18.78500 600.000
18.83000 585.000
18.87500 559.000
18.92000 574.000
18.96500 536.000
19.01000 517.000
19.05500 508.000
19.10000 509.000
19.14500 512.000
19.19000 495.000
19.23500 504.000
19.28000 526.000
19.32500 495.000
19.37000 491.000
19.41500 497.000
19.46000 535.000
19.50500 508.000
19.55000 493.000
19.59500 516.000
19.64000 509.000
19.68500 506.000
19.73000 503.000
19.77500 488.000
19.82000 522.000
19.86500 523.000
19.91000 545.000
19.95500 504.000
20.00000 515.000
20.04500 495.000
20.09000 522.000
20.13500 511.000
20.18000 550.000
20.22500 520.000
20.27000 565.000
20.31500 541.000
20.36000 545.000
20.40500 573.000
20.45000 535.000
20.49500 574.000
20.54000 525.000
20.58500 572.000
20.63000 517.000
20.67500 531.000
20.72000 516.000
20.76500 516.000
20.81000 525.000
20.85500 535.000
20.90000 576.000
20.94500 517.000
20.99000 541.000
21.03500 536.000
21.08000 550.000
21.12500 580.000
21.17000 604.000
21.21500 591.000
21.26000 580.000
21.30500 539.000
21.35000 552.000
21.39500 553.000
21.44000 556.000
21.48500 598.000
21.53000 535.000
21.57500 595.000
21.62000 574.000
21.66500 600.000
21.71000 544.000
21.75500 666.000
21.80000 634.000
21.84500 669.000
21.89000 688.000
21.93500 679.000
21.98000 668.000
22.02500 723.000
22.07000 709.000
22.11500 730.000
22.16000 694.000
22.20500 694.000
22.25000 685.000
22.29500 638.000
22.34000 666.000
22.38500 646.000
22.43000 653.000
22.47500 625.000
22.52000 663.000
22.56500 664.000
22.61000 671.000
22.65500 670.000
22.70000 706.000
22.74500 736.000
22.79000 764.000
22.83500 815.000
22.88000 806.000
22.92500 865.000
22.97000 874.000
23.01500 862.000
23.06000 837.000
23.10500 774.000
23.15000 787.000
23.19500 752.000
23.24000 705.000
23.28500 700.000
23.33000 685.000
23.37500 675.000
23.42000 707.000
23.46500 645.000
23.51000 688.000
23.55500 662.000
23.60000 611.000
23.64500 661.000
23.69000 659.000
23.73500 660.000
23.78000 623.000
23.82500 639.000
23.87000 672.000
23.91500 680.000
23.96000 676.000
24.00500 660.000
24.05000 701.000
24.09500 704.000
24.14000 676.000
24.18500 639.000
24.23000 720.000
24.27500 681.000
24.32000 712.000
24.36500 714.000
24.41000 747.000
24.45500 761.000
24.50000 789.000
24.54500 743.000
24.59000 781.000
24.63500 773.000
24.68000 789.000
24.72500 786.000
24.77000 771.000
24.81500 741.000
24.86000 747.000
24.90500 745.000
24.95000 718.000
24.99500 752.000
25.04000 758.000
25.08500 736.000
25.13000 734.000
25.17500 746.000
25.22000 804.000
25.26500 787.000
25.31000 807.000
25.35500 791.000
25.40000 846.000
25.44500 819.000
25.49000 845.000
25.53500 865.000
25.58000 878.000
25.62500 865.000
25.67000 888.000
25.71500 866.000
25.76000 923.000
25.80500 907.000
25.85000 853.000
25.89500 813.000
25.94000 802.000
25.98500 828.000
26.03000 807.000
26.07500 802.000
26.12000 820.000
26.16500 822.000
26.21000 838.000
26.25500 799.000
26.30000 839.000
26.34500 858.000
26.39000 839.000
26.43500 863.000
26.48000 864.000
26.52500 829.000
26.57000 865.000
26.61500 831.000
26.66000 892.000
26.70500 915.000
26.75000 895.000
26.79500 898.000
26.84000 904.000
26.88500 932.000
26.93000 936.000
26.97500 982.000
27.02000 954.000
27.06500 934.000
27.11000 1048.000
27.15500 1080.000
27.20000 1004.000
27.24500 1101.000
27.29000 1162.000
27.33500 1179.000
27.38000 1221.000
27.42500 1359.000
27.47000 1432.000
27.51500 1732.000
27.56000 2013.000
27.60500 2376.000
27.65000 3025.000
27.69500 3553.000
27.74000 3770.000
27.78500 3604.000
27.83000 3260.000
27.87500 2943.000
27.92000 2853.000
27.96500 2701.000
28.01000 2624.000
28.05500 2462.000
28.10000 2283.000
28.14500 1932.000
28.19000 1904.000
28.23500 1744.000
28.28000 1638.000
28.32500 1589.000
28.37000 1388.000
28.41500 1357.000
28.46000 1296.000
28.50500 1234.000
28.55000 1127.000
28.59500 1078.000
28.64000 1034.000
28.68500 1072.000
28.73000 1017.000
28.77500 1031.000
28.82000 969.000
28.86500 924.000
28.91000 860.000
28.95500 940.000
29.00000 938.000
29.04500 900.000
29.09000 990.000
29.13500 954.000
29.18000 1008.000
29.22500 923.000
29.27000 835.000
29.31500 842.000
29.36000 773.000
29.40500 807.000
29.45000 779.000
29.49500 796.000
29.54000 741.000
29.58500 755.000
29.63000 765.000
29.67500 803.000
29.72000 746.000
29.76500 768.000
29.81000 743.000
29.85500 745.000
29.90000 781.000
29.94500 771.000
29.99000 791.000
30.03500 773.000
30.08000 769.000
30.12500 764.000
30.17000 752.000
30.21500 780.000
30.26000 753.000
30.30500 784.000
30.35000 802.000
30.39500 773.000
30.44000 834.000
30.48500 844.000
30.53000 807.000
30.57500 786.000
30.62000 765.000
30.66500 803.000
30.71000 751.000
30.75500 730.000
30.80000 754.000
30.84500 688.000
30.89000 749.000
30.93500 691.000
30.98000 673.000
31.02500 694.000
31.07000 641.000
31.11500 606.000
31.16000 599.000
31.20500 680.000
31.25000 623.000
31.29500 654.000
31.34000 663.000
31.38500 656.000
31.43000 664.000
31.47500 678.000
31.52000 641.000
31.56500 600.000
31.61000 703.000
31.65500 655.000
31.70000 643.000
31.74500 621.000
31.79000 630.000
31.83500 617.000
31.88000 640.000
31.92500 673.000
31.97000 663.000
32.01500 669.000
32.06000 603.000
32.10500 609.000
32.15000 666.000
32.19500 647.000
32.24000 722.000
32.28500 766.000
32.33000 797.000
32.37500 821.000
32.42000 794.000
32.46500 737.000
32.51000 632.000
32.55500 592.000
32.60000 558.000
32.64500 567.000
32.69000 528.000
32.73500 572.000
32.78000 547.000
32.82500 487.000
32.87000 497.000
32.91500 472.000
32.96000 471.000
33.00500 492.000
33.05000 452.000
33.09500 497.000
33.14000 480.000
33.18500 460.000
33.23000 468.000
33.27500 481.000
33.32000 484.000
33.36500 433.000
33.41000 465.000
33.45500 449.000
33.50000 454.000
33.54500 433.000
33.59000 464.000
33.63500 435.000
33.68000 460.000
33.72500 434.000
33.77000 422.000
33.81500 463.000
33.86000 458.000
33.90500 435.000
33.95000 459.000
33.99500 461.000
34.04000 453.000
34.08500 454.000
34.13000 453.000
34.17500 434.000
34.22000 456.000
34.26500 429.000
34.31000 433.000
34.35500 448.000
34.40000 446.000
34.44500 433.000
34.49000 461.000
34.53500 438.000
34.58000 427.000
34.62500 456.000
34.67000 484.000
34.71500 468.000
34.76000 444.000
34.80500 438.000
34.85000 463.000
34.89500 469.000
34.94000 475.000
34.98500 461.000
35.03000 475.000
35.07500 453.000
35.12000 503.000
35.16500 525.000
35.21000 542.000
35.25500 557.000
35.30000 582.000
35.34500 635.000
35.39000 692.000
35.43500 913.000
35.48000 985.000
35.52500 895.000
35.57000 735.000
35.61500 607.000
35.66000 559.000
35.70500 572.000
35.75000 485.000
35.79500 493.000
35.84000 447.000
35.88500 476.000
35.93000 479.000
35.97500 498.000
36.02000 495.000
36.06500 492.000
36.11000 512.000
36.15500 515.000
36.20000 495.000
36.24500 529.000
36.29000 543.000
36.33500 492.000
36.38000 541.000
36.42500 570.000
36.47000 554.000
36.51500 560.000
36.56000 544.000
36.60500 535.000
36.65000 573.000
36.69500 526.000
36.74000 493.000
36.78500 461.000
36.83000 479.000
36.87500 438.000
36.92000 448.000
36.96500 451.000
37.01000 469.000
37.05500 447.000
37.10000 472.000
37.14500 489.000
37.19000 499.000
37.23500 513.000
37.28000 519.000
37.32500 557.000
37.37000 532.000
37.41500 534.000
37.46000 514.000
37.50500 554.000
37.55000 516.000
37.59500 506.000
37.64000 495.000
37.68500 521.000
37.73000 496.000
37.77500 528.000
37.82000 454.000
37.86500 490.000
37.91000 451.000
37.95500 483.000
38.00000 466.000
38.04500 479.000
38.09000 480.000
38.13500 436.000
38.18000 429.000
38.22500 434.000
38.27000 436.000
38.31500 451.000
38.36000 461.000
38.40500 488.000
38.45000 492.000
38.49500 491.000
38.54000 517.000
38.58500 526.000
38.63000 455.000
38.67500 474.000
38.72000 460.000
38.76500 466.000
38.81000 458.000
38.85500 477.000
38.90000 450.000
38.94500 466.000
38.99000 460.000
39.03500 469.000
39.08000 412.000
39.12500 404.000
39.17000 420.000
39.21500 403.000
39.26000 404.000
39.30500 362.000
39.35000 424.000
39.39500 383.000
39.44000 375.000
39.48500 398.000
39.53000 410.000
39.57500 392.000
39.62000 389.000
39.66500 419.000
39.71000 430.000
39.75500 389.000
39.80000 380.000
39.84500 406.000
39.89000 465.000
39.93500 425.000
39.98000 425.000
40.02500 424.000
40.07000 464.000
40.11500 416.000
40.16000 429.000
40.20500 427.000
40.25000 435.000
40.29500 424.000
40.34000 418.000
40.38500 433.000
40.43000 458.000
40.47500 435.000
40.52000 396.000
40.56500 410.000
40.61000 423.000
40.65500 438.000
40.70000 412.000
40.74500 391.000
40.79000 416.000
40.83500 386.000
40.88000 371.000
40.92500 415.000
40.97000 382.000
41.01500 401.000
41.06000 371.000
41.10500 396.000
41.15000 364.000
41.19500 407.000
41.24000 374.000
41.28500 380.000
41.33000 354.000
41.37500 339.000
41.42000 374.000
41.46500 331.000
41.51000 391.000
41.55500 382.000
41.60000 403.000
41.64500 359.000
41.69000 355.000
41.73500 382.000
41.78000 356.000
41.82500 324.000
41.87000 328.000
41.91500 361.000
41.96000 357.000
42.00500 345.000
42.05000 338.000
42.09500 338.000
42.14000 322.000
42.18500 326.000
42.23000 344.000
42.27500 349.000
42.32000 349.000
42.36500 358.000
42.41000 384.000
42.45500 359.000
42.50000 384.000
42.54500 373.000
42.59000 362.000
42.63500 350.000
42.68000 387.000
42.72500 404.000
42.77000 394.000
42.81500 374.000
42.86000 370.000
42.90500 400.000
42.95000 419.000
42.99500 454.000
43.04000 450.000
43.08500 505.000
43.13000 487.000
43.17500 534.000
43.22000 585.000
43.26500 615.000
43.31000 637.000
43.35500 569.000
43.40000 501.000
43.44500 491.000
43.49000 502.000
43.53500 464.000
43.58000 439.000
43.62500 441.000
43.67000 405.000
43.71500 428.000
43.76000 413.000
43.80500 342.000
43.85000 422.000
43.89500 432.000
43.94000 362.000
43.98500 374.000
44.03000 391.000
44.07500 358.000
44.12000 389.000
44.16500 425.000
44.21000 422.000
44.25500 415.000
44.30000 429.000
44.34500 467.000
44.39000 483.000
44.43500 460.000
44.48000 429.000
44.52500 436.000
44.57000 413.000
44.61500 384.000
44.66000 422.000
44.70500 413.000
44.75000 413.000
44.79500 423.000
44.84000 412.000
44.88500 377.000
44.93000 393.000
44.97500 390.000
45.02000 408.000
45.06500 400.000
45.11000 412.000
45.15500 410.000
45.20000 413.000
45.24500 387.000
45.29000 374.000
45.33500 365.000
45.38000 420.000
45.42500 383.000
45.47000 361.000
45.51500 390.000
45.56000 372.000
45.60500 372.000
45.65000 385.000
45.69500 389.000
45.74000 381.000
45.78500 382.000
45.83000 361.000
45.87500 394.000
45.92000 388.000
45.96500 390.000
46.01000 387.000
46.05500 371.000
46.10000 385.000
46.14500 392.000
46.19000 379.000
46.23500 394.000
46.28000 376.000
46.32500 368.000
46.37000 368.000
46.41500 357.000
46.46000 386.000
46.50500 348.000
46.55000 358.000
46.59500 358.000
46.64000 330.000
46.68500 346.000
46.73000 363.000
46.77500 356.000
46.82000 347.000
46.86500 348.000
46.91000 357.000
46.95500 342.000
47.00000 349.000
47.04500 318.000
47.09000 339.000
47.13500 337.000
47.18000 317.000
47.22500 325.000
47.27000 297.000
47.31500 322.000
47.36000 318.000
47.40500 314.000
47.45000 302.000
47.49500 285.000
47.54000 304.000
47.58500 283.000
47.63000 288.000
47.67500 301.000
47.72000 289.000
47.76500 302.000
47.81000 296.000
47.85500 291.000
47.90000 311.000
47.94500 303.000
47.99000 313.000
48.03500 316.000
48.08000 283.000
48.12500 279.000
48.17000 286.000
48.21500 285.000
48.26000 307.000
48.30500 283.000
48.35000 290.000
48.39500 291.000
48.44000 282.000
48.48500 279.000
48.53000 268.000
48.57500 248.000
48.62000 269.000
48.66500 289.000
48.71000 286.000
48.75500 269.000
48.80000 273.000
48.84500 279.000
48.89000 270.000
48.93500 264.000
48.98000 282.000
49.02500 282.000
49.07000 320.000
49.11500 297.000
49.16000 259.000
49.20500 258.000
49.25000 272.000
49.29500 292.000
49.34000 291.000
49.38500 277.000
49.43000 276.000
49.47500 291.000
49.52000 279.000
49.56500 277.000
49.61000 284.000
49.65500 289.000
49.70000 280.000
49.74500 241.000
49.79000 273.000
49.83500 279.000
49.88000 278.000
49.92500 252.000
49.97000 287.000
50.01500 300.000
50.06000 289.000
50.10500 334.000
50.15000 314.000
50.19500 311.000
50.24000 321.000
50.28500 304.000
50.33000 264.000
50.37500 303.000
50.42000 289.000
50.46500 291.000
50.51000 299.000
50.55500 263.000
50.60000 314.000
50.64500 300.000
50.69000 293.000
50.73500 263.000
50.78000 288.000
50.82500 283.000
50.87000 299.000
50.91500 292.000
50.96000 287.000
51.00500 277.000
51.05000 297.000
51.09500 294.000
51.14000 295.000
51.18500 277.000
51.23000 288.000
51.27500 291.000
51.32000 299.000
51.36500 307.000
51.41000 316.000
51.45500 268.000
51.50000 250.000
51.54500 316.000
51.59000 290.000
51.63500 312.000
51.68000 300.000
51.72500 297.000
51.77000 287.000
51.81500 277.000
51.86000 270.000
51.90500 277.000
51.95000 281.000
51.99500 268.000
52.04000 278.000
52.08500 275.000
52.13000 251.000
52.17500 250.000
52.22000 276.000
52.26500 271.000
52.31000 268.000
52.35500 272.000
52.40000 274.000
52.44500 269.000
52.49000 298.000
52.53500 276.000
52.58000 266.000
52.62500 264.000
52.67000 301.000
52.71500 277.000
52.76000 279.000
52.80500 262.000
52.85000 258.000
52.89500 292.000
52.94000 285.000
52.98500 299.000
53.03000 304.000
53.07500 275.000
53.12000 286.000
53.16500 277.000
53.21000 277.000
53.25500 275.000
53.30000 272.000
53.34500 267.000
53.39000 275.000
53.43500 273.000
53.48000 305.000
53.52500 267.000
53.57000 271.000
53.61500 293.000
53.66000 248.000
53.70500 277.000
53.75000 266.000
53.79500 264.000
53.84000 254.000
53.88500 257.000
53.93000 262.000
53.97500 286.000
54.02000 266.000
54.06500 265.000
54.11000 272.000
54.15500 282.000
54.20000 278.000
54.24500 255.000
54.29000 273.000
54.33500 267.000
54.38000 273.000
54.42500 265.000
54.47000 250.000
54.51500 270.000
54.56000 245.000
54.60500 233.000
54.65000 241.000
54.69500 251.000
54.74000 281.000
54.78500 257.000
54.83000 260.000
54.87500 247.000
54.92000 239.000
54.96500 239.000
55.01000 270.000
55.05500 231.000
55.10000 252.000
55.14500 251.000
55.19000 251.000
55.23500 260.000
55.28000 242.000
55.32500 270.000
55.37000 258.000
55.41500 266.000
55.46000 252.000
55.50500 257.000
55.55000 248.000
55.59500 241.000
55.64000 249.000
55.68500 234.000
55.73000 245.000
55.77500 248.000
55.82000 265.000
55.86500 261.000
55.91000 242.000
55.95500 248.000
56.00000 246.000
56.04500 272.000
56.09000 250.000
56.13500 234.000
56.18000 256.000
56.22500 243.000
56.27000 258.000
56.31500 245.000
56.36000 250.000
56.40500 281.000
56.45000 259.000
56.49500 250.000
56.54000 256.000
56.58500 255.000
56.63000 248.000
56.67500 241.000
56.72000 242.000
56.76500 264.000
56.81000 265.000
56.85500 256.000
56.90000 248.000
56.94500 263.000
56.99000 270.000
57.03500 273.000
57.08000 274.000
57.12500 261.000
57.17000 283.000
57.21500 299.000
57.26000 302.000
57.30500 308.000
57.35000 291.000
57.39500 281.000
57.44000 306.000
57.48500 307.000
57.53000 313.000
57.57500 306.000
57.62000 270.000
57.66500 283.000
57.71000 279.000
57.75500 298.000
57.80000 289.000
57.84500 274.000
57.89000 299.000
57.93500 272.000
57.98000 264.000
58.02500 278.000
58.07000 275.000
58.11500 250.000
58.16000 313.000
58.20500 280.000
58.25000 277.000
58.29500 274.000
58.34000 262.000
58.38500 281.000
58.43000 277.000
58.47500 297.000
58.52000 278.000
58.56500 250.000
58.61000 277.000
58.65500 256.000
58.70000 258.000
58.74500 272.000
58.79000 257.000
58.83500 249.000
58.88000 231.000
58.92500 252.000
58.97000 242.000
59.01500 245.000
59.06000 250.000
59.10500 229.000
59.15000 237.000
59.19500 228.000
59.24000 265.000
59.28500 236.000
59.33000 240.000
59.37500 250.000
59.42000 240.000
59.46500 243.000
59.51000 272.000
59.55500 244.000
59.60000 228.000
59.64500 258.000
59.69000 256.000
59.73500 229.000
59.78000 221.000
59.82500 246.000
59.87000 243.000
59.91500 249.000
59.96000 261.000
60.00500 223.000
60.05000 232.000
60.09500 241.000
60.14000 237.000
60.18500 254.000
60.23000 232.000
60.27500 247.000
60.32000 231.000
60.36500 262.000
60.41000 240.000
60.45500 247.000
60.50000 250.000
60.54500 251.000
60.59000 260.000
60.63500 240.000
60.68000 246.000
60.72500 248.000
60.77000 236.000
60.81500 253.000
60.86000 247.000
60.90500 240.000
60.95000 249.000
60.99500 276.000
61.04000 242.000
61.08500 227.000
61.13000 222.000
61.17500 256.000
61.22000 257.000
61.26500 260.000
61.31000 247.000
61.35500 224.000
61.40000 230.000
61.44500 222.000
61.49000 223.000
61.53500 222.000
61.58000 231.000
61.62500 221.000
61.67000 248.000
61.71500 222.000
61.76000 212.000
61.80500 223.000
61.85000 214.000
61.89500 218.000
61.94000 218.000
61.98500 211.000