File: ISoD/xrd_data/HSC134.xyd
2.00000 7.000
2.04500 5.000
2.09000 6.000
2.13500 8.000
2.18000 7.000
2.22500 5.000
2.27000 8.000
2.31500 5.000
2.36000 6.000
2.40500 6.000
2.45000 4.000
2.49500 5.000
2.54000 7.000
2.58500 4.000
2.63000 6.000
2.67500 5.000
2.72000 7.000
2.76500 3.000
2.81000 4.000
2.85500 4.000
2.90000 7.000
2.94500 8.000
2.99000 3.000
3.03500 4.000
3.08000 7.000
3.12500 19.000
3.17000 22.000
3.21500 111.000
3.26000 380.000
3.30500 700.000
3.35000 836.000
3.39500 760.000
3.44000 759.000
3.48500 723.000
3.53000 744.000
3.57500 701.000
3.62000 697.000
3.66500 702.000
3.71000 622.000
3.75500 657.000
3.80000 655.000
3.84500 615.000
3.89000 614.000
3.93500 585.000
3.98000 572.000
4.02500 619.000
4.07000 598.000
4.11500 579.000
4.16000 561.000
4.20500 560.000
4.25000 542.000
4.29500 538.000
4.34000 557.000
4.38500 536.000
4.43000 522.000
4.47500 547.000
4.52000 480.000
4.56500 505.000
4.61000 496.000
4.65500 522.000
4.70000 514.000
4.74500 478.000
4.79000 511.000
4.83500 524.000
4.88000 505.000
4.92500 464.000
4.97000 506.000
5.01500 490.000
5.06000 486.000
5.10500 449.000
5.15000 505.000
5.19500 472.000
5.24000 470.000
5.28500 490.000
5.33000 480.000
5.37500 469.000
5.42000 511.000
5.46500 467.000
5.51000 457.000
5.55500 462.000
5.60000 474.000
5.64500 498.000
5.69000 489.000
5.73500 464.000
5.78000 443.000
5.82500 487.000
5.87000 486.000
5.91500 478.000
5.96000 483.000
6.00500 457.000
6.05000 490.000
6.09500 489.000
6.14000 453.000
6.18500 433.000
6.23000 495.000
6.27500 482.000
6.32000 455.000
6.36500 470.000
6.41000 498.000
6.45500 453.000
6.50000 511.000
6.54500 510.000
6.59000 495.000
6.63500 492.000
6.68000 512.000
6.72500 478.000
6.77000 497.000
6.81500 470.000
6.86000 509.000
6.90500 527.000
6.95000 501.000
6.99500 524.000
7.04000 527.000
7.08500 540.000
7.13000 548.000
7.17500 520.000
7.22000 516.000
7.26500 533.000
7.31000 566.000
7.35500 553.000
7.40000 569.000
7.44500 578.000
7.49000 602.000
7.53500 648.000
7.58000 683.000
7.62500 710.000
7.67000 761.000
7.71500 796.000
7.76000 882.000
7.80500 917.000
7.85000 1058.000
7.89500 1100.000
7.94000 1157.000
7.98500 1185.000
8.03000 1143.000
8.07500 1113.000
8.12000 1051.000
8.16500 1047.000
8.21000 971.000
8.25500 864.000
8.30000 845.000
8.34500 789.000
8.39000 836.000
8.43500 765.000
8.48000 757.000
8.52500 759.000
8.57000 755.000
8.61500 702.000
8.66000 745.000
8.70500 704.000
8.75000 685.000
8.79500 726.000
8.84000 740.000
8.88500 658.000
8.93000 759.000
8.97500 679.000
9.02000 643.000
9.06500 634.000
9.11000 664.000
9.15500 678.000
9.20000 658.000
9.24500 676.000
9.29000 710.000
9.33500 662.000
9.38000 692.000
9.42500 680.000
9.47000 720.000
9.51500 737.000
9.56000 684.000
9.60500 701.000
9.65000 755.000
9.69500 714.000
9.74000 719.000
9.78500 766.000
9.83000 774.000
9.87500 757.000
9.92000 772.000
9.96500 774.000
10.01000 766.000
10.05500 765.000
10.10000 735.000
10.14500 758.000
10.19000 736.000
10.23500 699.000
10.28000 673.000
10.32500 657.000
10.37000 661.000
10.41500 643.000
10.46000 621.000
10.50500 625.000
10.55000 622.000
10.59500 616.000
10.64000 625.000
10.68500 557.000
10.73000 575.000
10.77500 562.000
10.82000 554.000
10.86500 558.000
10.91000 522.000
10.95500 535.000
11.00000 549.000
11.04500 592.000
11.09000 525.000
11.13500 550.000
11.18000 551.000
11.22500 547.000
11.27000 519.000
11.31500 533.000
11.36000 540.000
11.40500 502.000
11.45000 554.000
11.49500 512.000
11.54000 522.000
11.58500 556.000
11.63000 518.000
11.67500 555.000
11.72000 543.000
11.76500 535.000
11.81000 517.000
11.85500 534.000
11.90000 560.000
11.94500 533.000
11.99000 534.000
12.03500 523.000
12.08000 513.000
12.12500 548.000
12.17000 527.000
12.21500 536.000
12.26000 513.000
12.30500 549.000
12.35000 556.000
12.39500 538.000
12.44000 563.000
12.48500 587.000
12.53000 572.000
12.57500 550.000
12.62000 542.000
12.66500 594.000
12.71000 589.000
12.75500 557.000
12.80000 577.000
12.84500 592.000
12.89000 602.000
12.93500 625.000
12.98000 558.000
13.02500 584.000
13.07000 572.000
13.11500 604.000
13.16000 610.000
13.20500 590.000
13.25000 553.000
13.29500 530.000
13.34000 610.000
13.38500 620.000
13.43000 593.000
13.47500 577.000
13.52000 574.000
13.56500 560.000
13.61000 557.000
13.65500 606.000
13.70000 566.000
13.74500 589.000
13.79000 566.000
13.83500 553.000
13.88000 602.000
13.92500 569.000
13.97000 558.000
14.01500 585.000
14.06000 589.000
14.10500 591.000
14.15000 575.000
14.19500 563.000
14.24000 562.000
14.28500 593.000
14.33000 581.000
14.37500 584.000
14.42000 557.000
14.46500 568.000
14.51000 588.000
14.55500 553.000
14.60000 587.000
14.64500 574.000
14.69000 589.000
14.73500 594.000
14.78000 601.000
14.82500 577.000
14.87000 610.000
14.91500 567.000
14.96000 624.000
15.00500 627.000
15.05000 596.000
15.09500 588.000
15.14000 581.000
15.18500 615.000
15.23000 627.000
15.27500 589.000
15.32000 586.000
15.36500 598.000
15.41000 610.000
15.45500 594.000
15.50000 604.000
15.54500 603.000
15.59000 606.000
15.63500 583.000
15.68000 585.000
15.72500 571.000
15.77000 559.000
15.81500 536.000
15.86000 580.000
15.90500 532.000
15.95000 539.000
15.99500 563.000
16.04000 561.000
16.08500 581.000
16.13000 578.000
16.17500 564.000
16.22000 543.000
16.26500 550.000
16.31000 561.000
16.35500 578.000
16.40000 551.000
16.44500 589.000
16.49000 583.000
16.53500 577.000
16.58000 561.000
16.62500 552.000
16.67000 584.000
16.71500 570.000
16.76000 582.000
16.80500 560.000
16.85000 564.000
16.89500 550.000
16.94000 578.000
16.98500 583.000
17.03000 589.000
17.07500 566.000
17.12000 588.000
17.16500 578.000
17.21000 570.000
17.25500 550.000
17.30000 584.000
17.34500 538.000
17.39000 549.000
17.43500 578.000
17.48000 567.000
17.52500 553.000
17.57000 545.000
17.61500 562.000
17.66000 560.000
17.70500 591.000
17.75000 559.000
17.79500 585.000
17.84000 590.000
17.88500 568.000
17.93000 594.000
17.97500 604.000
18.02000 564.000
18.06500 558.000
18.11000 592.000
18.15500 562.000
18.20000 578.000
18.24500 578.000
18.29000 575.000
18.33500 567.000
18.38000 578.000
18.42500 576.000
18.47000 549.000
18.51500 572.000
18.56000 598.000
18.60500 615.000
18.65000 574.000
18.69500 591.000
18.74000 592.000
18.78500 568.000
18.83000 606.000
18.87500 589.000
18.92000 599.000
18.96500 561.000
19.01000 588.000
19.05500 577.000
19.10000 587.000
19.14500 567.000
19.19000 593.000
19.23500 578.000
19.28000 582.000
19.32500 565.000
19.37000 627.000
19.41500 579.000
19.46000 598.000
19.50500 594.000
19.55000 564.000
19.59500 575.000
19.64000 599.000
19.68500 572.000
19.73000 618.000
19.77500 572.000
19.82000 585.000
19.86500 544.000
19.91000 570.000
19.95500 613.000
20.00000 593.000
20.04500 599.000
20.09000 579.000
20.13500 560.000
20.18000 589.000
20.22500 583.000
20.27000 595.000
20.31500 592.000
20.36000 597.000
20.40500 588.000
20.45000 601.000
20.49500 578.000
20.54000 611.000
20.58500 616.000
20.63000 557.000
20.67500 615.000
20.72000 612.000
20.76500 561.000
20.81000 576.000
20.85500 607.000
20.90000 644.000
20.94500 615.000
20.99000 601.000
21.03500 628.000
21.08000 615.000
21.12500 617.000
21.17000 615.000
21.21500 630.000
21.26000 687.000
21.30500 665.000
21.35000 666.000
21.39500 649.000
21.44000 670.000
21.48500 635.000
21.53000 684.000
21.57500 675.000
21.62000 638.000
21.66500 660.000
21.71000 705.000
21.75500 649.000
21.80000 659.000
21.84500 662.000
21.89000 687.000
21.93500 717.000
21.98000 655.000
22.02500 720.000
22.07000 664.000
22.11500 665.000
22.16000 664.000
22.20500 695.000
22.25000 739.000
22.29500 712.000
22.34000 746.000
22.38500 670.000
22.43000 690.000
22.47500 685.000
22.52000 683.000
22.56500 680.000
22.61000 651.000
22.65500 693.000
22.70000 704.000
22.74500 700.000
22.79000 737.000
22.83500 683.000
22.88000 711.000
22.92500 721.000
22.97000 741.000
23.01500 689.000
23.06000 741.000
23.10500 757.000
23.15000 719.000
23.19500 728.000
23.24000 730.000
23.28500 726.000
23.33000 702.000
23.37500 709.000
23.42000 750.000
23.46500 752.000
23.51000 740.000
23.55500 738.000
23.60000 724.000
23.64500 700.000
23.69000 705.000
23.73500 696.000
23.78000 679.000
23.82500 685.000
23.87000 693.000
23.91500 678.000
23.96000 708.000
24.00500 674.000
24.05000 685.000
24.09500 695.000
24.14000 690.000
24.18500 667.000
24.23000 659.000
24.27500 665.000
24.32000 688.000
24.36500 678.000
24.41000 713.000
24.45500 754.000
24.50000 704.000
24.54500 678.000
24.59000 718.000
24.63500 682.000
24.68000 740.000
24.72500 697.000
24.77000 736.000
24.81500 688.000
24.86000 721.000
24.90500 697.000
24.95000 679.000
24.99500 719.000
25.04000 735.000
25.08500 766.000
25.13000 701.000
25.17500 767.000
25.22000 776.000
25.26500 723.000
25.31000 745.000
25.35500 747.000
25.40000 732.000
25.44500 753.000
25.49000 750.000
25.53500 733.000
25.58000 773.000
25.62500 730.000
25.67000 763.000
25.71500 776.000
25.76000 762.000
25.80500 744.000
25.85000 747.000
25.89500 804.000
25.94000 771.000
25.98500 756.000
26.03000 814.000
26.07500 800.000
26.12000 818.000
26.16500 797.000
26.21000 734.000
26.25500 827.000
26.30000 825.000
26.34500 802.000
26.39000 807.000
26.43500 846.000
26.48000 846.000
26.52500 927.000
26.57000 876.000
26.61500 892.000
26.66000 913.000
26.70500 952.000
26.75000 933.000
26.79500 966.000
26.84000 984.000
26.88500 1001.000
26.93000 1068.000
26.97500 1044.000
27.02000 1125.000
27.06500 1115.000
27.11000 1131.000
27.15500 1202.000
27.20000 1190.000
27.24500 1230.000
27.29000 1215.000
27.33500 1299.000
27.38000 1314.000
27.42500 1401.000
27.47000 1387.000
27.51500 1452.000
27.56000 1470.000
27.60500 1525.000
27.65000 1705.000
27.69500 1694.000
27.74000 1753.000
27.78500 1862.000
27.83000 1920.000
27.87500 2138.000
27.92000 2288.000
27.96500 2494.000
28.01000 2688.000
28.05500 2848.000
28.10000 2927.000
28.14500 3020.000
28.19000 2914.000
28.23500 2814.000
28.28000 2633.000
28.32500 2467.000
28.37000 2338.000
28.41500 2136.000
28.46000 1760.000
28.50500 1698.000
28.55000 1517.000
28.59500 1456.000
28.64000 1327.000
28.68500 1216.000
28.73000 1173.000
28.77500 1117.000
28.82000 1130.000
28.86500 1036.000
28.91000 1026.000
28.95500 1006.000
29.00000 968.000
29.04500 980.000
29.09000 959.000
29.13500 951.000
29.18000 945.000
29.22500 868.000
29.27000 891.000
29.31500 899.000
29.36000 869.000
29.40500 851.000
29.45000 818.000
29.49500 818.000
29.54000 799.000
29.58500 793.000
29.63000 805.000
29.67500 737.000
29.72000 754.000
29.76500 719.000
29.81000 724.000
29.85500 727.000
29.90000 720.000
29.94500 716.000
29.99000 705.000
30.03500 721.000
30.08000 670.000
30.12500 685.000
30.17000 723.000
30.21500 670.000
30.26000 663.000
30.30500 641.000
30.35000 658.000
30.39500 636.000
30.44000 654.000
30.48500 658.000
30.53000 645.000
30.57500 636.000
30.62000 649.000
30.66500 668.000
30.71000 627.000
30.75500 655.000
30.80000 611.000
30.84500 633.000
30.89000 622.000
30.93500 664.000
30.98000 572.000
31.02500 602.000
31.07000 611.000
31.11500 597.000
31.16000 579.000
31.20500 585.000
31.25000 600.000
31.29500 562.000
31.34000 594.000
31.38500 569.000
31.43000 597.000
31.47500 582.000
31.52000 590.000
31.56500 556.000
31.61000 553.000
31.65500 575.000
31.70000 547.000
31.74500 563.000
31.79000 571.000
31.83500 529.000
31.88000 569.000
31.92500 566.000
31.97000 528.000
32.01500 582.000
32.06000 554.000
32.10500 563.000
32.15000 570.000
32.19500 537.000
32.24000 529.000
32.28500 583.000
32.33000 541.000
32.37500 559.000
32.42000 586.000
32.46500 552.000
32.51000 562.000
32.55500 539.000
32.60000 523.000
32.64500 542.000
32.69000 504.000
32.73500 529.000
32.78000 473.000
32.82500 458.000
32.87000 486.000
32.91500 495.000
32.96000 512.000
33.00500 469.000
33.05000 470.000
33.09500 481.000
33.14000 471.000
33.18500 441.000
33.23000 429.000
33.27500 485.000
33.32000 473.000
33.36500 463.000
33.41000 474.000
33.45500 468.000
33.50000 431.000
33.54500 430.000
33.59000 472.000
33.63500 442.000
33.68000 437.000
33.72500 441.000
33.77000 495.000
33.81500 465.000
33.86000 450.000
33.90500 447.000
33.95000 479.000
33.99500 467.000
34.04000 456.000
34.08500 449.000
34.13000 431.000
34.17500 435.000
34.22000 429.000
34.26500 436.000
34.31000 444.000
34.35500 434.000
34.40000 421.000
34.44500 421.000
34.49000 427.000
34.53500 427.000
34.58000 423.000
34.62500 411.000
34.67000 457.000
34.71500 433.000
34.76000 436.000
34.80500 470.000
34.85000 433.000
34.89500 436.000
34.94000 458.000
34.98500 466.000
35.03000 426.000
35.07500 450.000
35.12000 496.000
35.16500 479.000
35.21000 480.000
35.25500 461.000
35.30000 467.000
35.34500 517.000
35.39000 513.000
35.43500 513.000
35.48000 464.000
35.52500 491.000
35.57000 533.000
35.61500 513.000
35.66000 511.000
35.70500 535.000
35.75000 490.000
35.79500 494.000
35.84000 489.000
35.88500 537.000
35.93000 479.000
35.97500 526.000
36.02000 526.000
36.06500 485.000
36.11000 493.000
36.15500 492.000
36.20000 496.000
36.24500 469.000
36.29000 519.000
36.33500 471.000
36.38000 460.000
36.42500 461.000
36.47000 476.000
36.51500 506.000
36.56000 475.000
36.60500 465.000
36.65000 500.000
36.69500 485.000
36.74000 446.000
36.78500 450.000
36.83000 478.000
36.87500 462.000
36.92000 477.000
36.96500 465.000
37.01000 468.000
37.05500 447.000
37.10000 478.000
37.14500 440.000
37.19000 466.000
37.23500 449.000
37.28000 481.000
37.32500 478.000
37.37000 450.000
37.41500 477.000
37.46000 431.000
37.50500 449.000
37.55000 438.000
37.59500 458.000
37.64000 462.000
37.68500 417.000
37.73000 422.000
37.77500 455.000
37.82000 496.000
37.86500 410.000
37.91000 435.000
37.95500 452.000
38.00000 422.000
38.04500 435.000
38.09000 452.000
38.13500 404.000
38.18000 433.000
38.22500 392.000
38.27000 437.000
38.31500 424.000
38.36000 385.000
38.40500 397.000
38.45000 427.000
38.49500 430.000
38.54000 402.000
38.58500 417.000
38.63000 379.000
38.67500 435.000
38.72000 418.000
38.76500 403.000
38.81000 381.000
38.85500 393.000
38.90000 407.000
38.94500 393.000
38.99000 402.000
39.03500 414.000
39.08000 408.000
39.12500 393.000
39.17000 406.000
39.21500 401.000
39.26000 376.000
39.30500 389.000
39.35000 374.000
39.39500 388.000
39.44000 379.000
39.48500 393.000
39.53000 367.000
39.57500 372.000
39.62000 367.000
39.66500 368.000
39.71000 375.000
39.75500 380.000
39.80000 355.000
39.84500 356.000
39.89000 370.000
39.93500 331.000
39.98000 347.000
40.02500 370.000
40.07000 385.000
40.11500 367.000
40.16000 367.000
40.20500 360.000
40.25000 381.000
40.29500 357.000
40.34000 374.000
40.38500 381.000
40.43000 350.000
40.47500 307.000
40.52000 313.000
40.56500 345.000
40.61000 372.000
40.65500 344.000
40.70000 361.000
40.74500 376.000
40.79000 391.000
40.83500 370.000
40.88000 336.000
40.92500 345.000
40.97000 329.000
41.01500 352.000
41.06000 357.000
41.10500 344.000
41.15000 338.000
41.19500 356.000
41.24000 355.000
41.28500 324.000
41.33000 344.000
41.37500 366.000
41.42000 334.000
41.46500 362.000
41.51000 353.000
41.55500 338.000
41.60000 349.000
41.64500 362.000
41.69000 361.000
41.73500 348.000
41.78000 325.000
41.82500 323.000
41.87000 321.000
41.91500 331.000
41.96000 323.000
42.00500 349.000
42.05000 318.000
42.09500 346.000
42.14000 354.000
42.18500 351.000
42.23000 351.000
42.27500 343.000
42.32000 347.000
42.36500 342.000
42.41000 374.000
42.45500 340.000
42.50000 338.000
42.54500 340.000
42.59000 356.000
42.63500 344.000
42.68000 357.000
42.72500 354.000
42.77000 385.000
42.81500 379.000
42.86000 356.000
42.90500 371.000
42.95000 371.000
42.99500 368.000
43.04000 373.000
43.08500 429.000
43.13000 398.000
43.17500 406.000
43.22000 413.000
43.26500 442.000
43.31000 402.000
43.35500 462.000
43.40000 442.000
43.44500 392.000
43.49000 379.000
43.53500 409.000
43.58000 392.000
43.62500 393.000
43.67000 393.000
43.71500 355.000
43.76000 392.000
43.80500 390.000
43.85000 390.000
43.89500 372.000
43.94000 397.000
43.98500 390.000
44.03000 378.000
44.07500 357.000
44.12000 355.000
44.16500 364.000
44.21000 365.000
44.25500 382.000
44.30000 363.000
44.34500 365.000
44.39000 361.000
44.43500 375.000
44.48000 370.000
44.52500 373.000
44.57000 344.000
44.61500 392.000
44.66000 360.000
44.70500 373.000
44.75000 342.000
44.79500 383.000
44.84000 359.000
44.88500 393.000
44.93000 372.000
44.97500 343.000
45.02000 402.000
45.06500 350.000
45.11000 353.000
45.15500 357.000
45.20000 341.000
45.24500 371.000
45.29000 384.000
45.33500 367.000
45.38000 353.000
45.42500 354.000
45.47000 370.000
45.51500 342.000
45.56000 343.000
45.60500 328.000
45.65000 347.000
45.69500 344.000
45.74000 370.000
45.78500 370.000
45.83000 325.000
45.87500 307.000
45.92000 331.000
45.96500 341.000
46.01000 328.000
46.05500 320.000
46.10000 317.000
46.14500 322.000
46.19000 313.000
46.23500 312.000
46.28000 326.000
46.32500 314.000
46.37000 344.000
46.41500 341.000
46.46000 304.000
46.50500 318.000
46.55000 288.000
46.59500 324.000
46.64000 304.000
46.68500 306.000
46.73000 308.000
46.77500 291.000
46.82000 288.000
46.86500 296.000
46.91000 301.000
46.95500 299.000
47.00000 308.000
47.04500 288.000
47.09000 272.000
47.13500 270.000
47.18000 299.000
47.22500 307.000
47.27000 286.000
47.31500 282.000
47.36000 308.000
47.40500 272.000
47.45000 284.000
47.49500 291.000
47.54000 264.000
47.58500 310.000
47.63000 285.000
47.67500 278.000
47.72000 247.000
47.76500 268.000
47.81000 261.000
47.85500 291.000
47.90000 263.000
47.94500 286.000
47.99000 291.000
48.03500 278.000
48.08000 269.000
48.12500 273.000
48.17000 271.000
48.21500 271.000
48.26000 290.000
48.30500 279.000
48.35000 262.000
48.39500 256.000
48.44000 263.000
48.48500 271.000
48.53000 288.000
48.57500 256.000
48.62000 270.000
48.66500 266.000
48.71000 266.000
48.75500 250.000
48.80000 273.000
48.84500 279.000
48.89000 265.000
48.93500 296.000
48.98000 274.000
49.02500 272.000
49.07000 256.000
49.11500 247.000
49.16000 276.000
49.20500 245.000
49.25000 263.000
49.29500 276.000
49.34000 237.000
49.38500 277.000
49.43000 260.000
49.47500 247.000
49.52000 247.000
49.56500 274.000
49.61000 259.000
49.65500 261.000
49.70000 265.000
49.74500 257.000
49.79000 265.000
49.83500 253.000
49.88000 256.000
49.92500 254.000
49.97000 259.000
50.01500 276.000
50.06000 277.000
50.10500 269.000
50.15000 255.000
50.19500 274.000
50.24000 251.000
50.28500 258.000
50.33000 255.000
50.37500 276.000
50.42000 260.000
50.46500 266.000
50.51000 242.000
50.55500 264.000
50.60000 266.000
50.64500 272.000
50.69000 261.000
50.73500 283.000
50.78000 256.000
50.82500 248.000
50.87000 236.000
50.91500 283.000
50.96000 276.000
51.00500 248.000
51.05000 291.000
51.09500 259.000
51.14000 268.000
51.18500 282.000
51.23000 277.000
51.27500 264.000
51.32000 261.000
51.36500 275.000
51.41000 264.000
51.45500 274.000
51.50000 277.000
51.54500 275.000
51.59000 280.000
51.63500 265.000
51.68000 275.000
51.72500 288.000
51.77000 261.000
51.81500 296.000
51.86000 292.000
51.90500 243.000
51.95000 275.000
51.99500 267.000
52.04000 246.000
52.08500 256.000
52.13000 270.000
52.17500 257.000
52.22000 252.000
52.26500 254.000
52.31000 258.000
52.35500 252.000
52.40000 250.000
52.44500 267.000
52.49000 289.000
52.53500 273.000
52.58000 257.000
52.62500 241.000
52.67000 246.000
52.71500 255.000
52.76000 280.000
52.80500 266.000
52.85000 251.000
52.89500 245.000
52.94000 257.000
52.98500 255.000
53.03000 253.000
53.07500 280.000
53.12000 273.000
53.16500 270.000
53.21000 249.000
53.25500 250.000
53.30000 258.000
53.34500 223.000
53.39000 271.000
53.43500 270.000
53.48000 258.000
53.52500 263.000
53.57000 256.000
53.61500 251.000
53.66000 255.000
53.70500 272.000
53.75000 263.000
53.79500 247.000
53.84000 263.000
53.88500 246.000
53.93000 256.000
53.97500 261.000
54.02000 258.000
54.06500 255.000
54.11000 229.000
54.15500 261.000
54.20000 261.000
54.24500 242.000
54.29000 251.000
54.33500 230.000
54.38000 243.000
54.42500 231.000
54.47000 233.000
54.51500 279.000
54.56000 244.000
54.60500 245.000
54.65000 241.000
54.69500 235.000
54.74000 242.000
54.78500 243.000
54.83000 253.000
54.87500 237.000
54.92000 255.000
54.96500 233.000
55.01000 247.000
55.05500 254.000
55.10000 228.000
55.14500 215.000
55.19000 251.000
55.23500 248.000
55.28000 229.000
55.32500 256.000
55.37000 238.000
55.41500 230.000
55.46000 249.000
55.50500 268.000
55.55000 250.000
55.59500 233.000
55.64000 252.000
55.68500 248.000
55.73000 211.000
55.77500 226.000
55.82000 238.000
55.86500 230.000
55.91000 236.000
55.95500 232.000
56.00000 213.000
56.04500 229.000
56.09000 267.000
56.13500 258.000
56.18000 256.000
56.22500 243.000
56.27000 223.000
56.31500 230.000
56.36000 232.000
56.40500 220.000
56.45000 248.000
56.49500 238.000
56.54000 244.000
56.58500 255.000
56.63000 254.000
56.67500 237.000
56.72000 238.000
56.76500 217.000
56.81000 249.000
56.85500 237.000
56.90000 256.000
56.94500 244.000
56.99000 245.000
57.03500 238.000
57.08000 240.000
57.12500 235.000
57.17000 236.000
57.21500 247.000
57.26000 242.000
57.30500 248.000
57.35000 238.000
57.39500 254.000
57.44000 228.000
57.48500 279.000
57.53000 269.000
57.57500 247.000
57.62000 288.000
57.66500 266.000
57.71000 261.000
57.75500 260.000
57.80000 241.000
57.84500 264.000
57.89000 276.000
57.93500 262.000
57.98000 245.000
58.02500 275.000
58.07000 274.000
58.11500 275.000
58.16000 226.000
58.20500 257.000
58.25000 259.000
58.29500 283.000
58.34000 286.000
58.38500 235.000
58.43000 247.000
58.47500 283.000
58.52000 243.000
58.56500 262.000
58.61000 283.000
58.65500 246.000
58.70000 253.000
58.74500 242.000
58.79000 259.000
58.83500 257.000
58.88000 248.000
58.92500 248.000
58.97000 217.000
59.01500 248.000
59.06000 232.000
59.10500 252.000
59.15000 218.000
59.19500 253.000
59.24000 229.000
59.28500 229.000
59.33000 238.000
59.37500 247.000
59.42000 219.000
59.46500 219.000
59.51000 223.000
59.55500 217.000
59.60000 219.000
59.64500 233.000
59.69000 215.000
59.73500 222.000
59.78000 212.000
59.82500 238.000
59.87000 203.000
59.91500 209.000
59.96000 204.000
60.00500 216.000
60.05000 210.000
60.09500 222.000
60.14000 211.000
60.18500 193.000
60.23000 211.000
60.27500 213.000
60.32000 218.000
60.36500 222.000
60.41000 197.000
60.45500 219.000
60.50000 205.000
60.54500 199.000
60.59000 205.000
60.63500 234.000
60.68000 183.000
60.72500 209.000
60.77000 202.000
60.81500 206.000
60.86000 204.000
60.90500 169.000
60.95000 205.000
60.99500 219.000
61.04000 226.000
61.08500 215.000
61.13000 211.000
61.17500 202.000
61.22000 199.000
61.26500 214.000
61.31000 216.000
61.35500 225.000
61.40000 208.000
61.44500 207.000
61.49000 230.000
61.53500 204.000
61.58000 204.000
61.62500 195.000
61.67000 190.000
61.71500 224.000
61.76000 213.000
61.80500 214.000
61.85000 185.000
61.89500 229.000
61.94000 211.000
61.98500 208.000