File: ISoD/xrd_data/HSC196_NM_range_1.xy
2.00000 2.000
2.04500 3.000
2.09000 4.000
2.13500 2.000
2.18000 4.000
2.22500 4.000
2.27000 3.000
2.31500 3.000
2.36000 2.000
2.40500 3.000
2.45000 2.000
2.49500 5.000
2.54000 4.000
2.58500 3.000
2.63000 0.000
2.67500 4.000
2.72000 15.000
2.76500 30.000
2.81000 88.000
2.85500 156.000
2.90000 218.000
2.94500 234.000
2.99000 250.000
3.03500 258.000
3.08000 242.000
3.12500 236.000
3.17000 254.000
3.21500 252.000
3.26000 262.000
3.30500 274.000
3.35000 259.000
3.39500 264.000
3.44000 255.000
3.48500 281.000
3.53000 264.000
3.57500 293.000
3.62000 268.000
3.66500 301.000
3.71000 291.000
3.75500 280.000
3.80000 291.000
3.84500 283.000
3.89000 274.000
3.93500 308.000
3.98000 291.000
4.02500 311.000
4.07000 307.000
4.11500 306.000
4.16000 311.000
4.20500 337.000
4.25000 309.000
4.29500 311.000
4.34000 301.000
4.38500 331.000
4.43000 332.000
4.47500 305.000
4.52000 318.000
4.56500 318.000
4.61000 346.000
4.65500 330.000
4.70000 341.000
4.74500 349.000
4.79000 342.000
4.83500 357.000
4.88000 357.000
4.92500 342.000
4.97000 339.000
5.01500 358.000
5.06000 356.000
5.10500 341.000
5.15000 369.000
5.19500 366.000
5.24000 355.000
5.28500 332.000
5.33000 356.000
5.37500 390.000
5.42000 368.000
5.46500 354.000
5.51000 373.000
5.55500 349.000
5.60000 396.000
5.64500 380.000
5.69000 381.000
5.73500 359.000
5.78000 379.000
5.82500 393.000
5.87000 393.000
5.91500 407.000
5.96000 378.000
6.00500 366.000
6.05000 414.000
6.09500 394.000
6.14000 381.000
6.18500 401.000
6.23000 393.000
6.27500 396.000
6.32000 376.000
6.36500 417.000
6.41000 433.000
6.45500 408.000
6.50000 381.000
6.54500 426.000
6.59000 375.000
6.63500 414.000
6.68000 412.000
6.72500 375.000
6.77000 401.000
6.81500 386.000
6.86000 410.000
6.90500 408.000
6.95000 407.000
6.99500 407.000
7.04000 464.000
7.08500 432.000
7.13000 424.000
7.17500 459.000
7.22000 432.000
7.26500 448.000
7.31000 439.000
7.35500 443.000
7.40000 452.000
7.44500 449.000
7.49000 441.000
7.53500 466.000
7.58000 498.000
7.62500 511.000
7.67000 562.000
7.71500 580.000
7.76000 661.000
7.80500 790.000
7.85000 963.000
7.89500 1178.000
7.94000 1628.000
7.98500 1685.000
8.03000 984.000
8.07500 755.000
8.12000 669.000
8.16500 589.000
8.21000 584.000
8.25500 543.000
8.30000 541.000
8.34500 508.000
8.39000 521.000
8.43500 538.000
8.48000 536.000
8.52500 501.000
8.57000 469.000
8.61500 542.000
8.66000 503.000
8.70500 457.000
8.75000 475.000
8.79500 505.000
8.84000 501.000
8.88500 501.000
8.93000 509.000
8.97500 500.000
9.02000 501.000
9.06500 488.000
9.11000 497.000
9.15500 472.000
9.20000 528.000
9.24500 532.000
9.29000 514.000
9.33500 499.000
9.38000 499.000
9.42500 508.000
9.47000 491.000
9.51500 543.000
9.56000 502.000
9.60500 531.000
9.65000 545.000
9.69500 551.000
9.74000 546.000
9.78500 556.000
9.83000 564.000
9.87500 613.000
9.92000 697.000
9.96500 791.000
10.01000 862.000
10.05500 913.000
10.10000 898.000
10.14500 879.000
10.19000 766.000
10.23500 689.000
10.28000 607.000
10.32500 541.000
10.37000 517.000
10.41500 511.000
10.46000 518.000
10.50500 483.000
10.55000 506.000
10.59500 536.000
10.64000 520.000
10.68500 505.000
10.73000 507.000
10.77500 497.000
10.82000 466.000
10.86500 473.000
10.91000 490.000
10.95500 458.000
11.00000 471.000
11.04500 461.000
11.09000 501.000
11.13500 460.000
11.18000 483.000
11.22500 462.000
11.27000 437.000
11.31500 509.000
11.36000 458.000
11.40500 476.000
11.45000 504.000
11.49500 491.000
11.54000 531.000
11.58500 496.000
11.63000 502.000
11.67500 479.000
11.72000 494.000
11.76500 482.000
11.81000 461.000
11.85500 497.000
11.90000 477.000
11.94500 470.000
11.99000 489.000
12.03500 475.000
12.08000 488.000
12.12500 449.000
12.17000 479.000
12.21500 428.000
12.26000 445.000
12.30500 486.000
12.35000 487.000
12.39500 480.000
12.44000 461.000
12.48500 440.000
12.53000 431.000
12.57500 446.000
12.62000 489.000
12.66500 496.000
12.71000 454.000
12.75500 461.000
12.80000 478.000
12.84500 493.000
12.89000 458.000
12.93500 466.000
12.98000 443.000
13.02500 470.000
13.07000 467.000
13.11500 457.000
13.16000 463.000
13.20500 490.000
13.25000 445.000
13.29500 480.000
13.34000 488.000
13.38500 446.000
13.43000 461.000
13.47500 461.000
13.52000 447.000
13.56500 487.000
13.61000 478.000
13.65500 482.000
13.70000 453.000
13.74500 433.000
13.79000 475.000
13.83500 454.000
13.88000 462.000
13.92500 456.000
13.97000 464.000
14.01500 447.000
14.06000 432.000
14.10500 469.000
14.15000 448.000
14.19500 483.000
14.24000 476.000
14.28500 433.000
14.33000 465.000
14.37500 450.000
14.42000 467.000
14.46500 475.000
14.51000 451.000
14.55500 484.000
14.60000 455.000
14.64500 495.000
14.69000 448.000
14.73500 451.000
14.78000 434.000
14.82500 468.000
14.87000 510.000
14.91500 468.000
14.96000 498.000
15.00500 500.000
15.05000 517.000
15.09500 563.000
15.14000 579.000
15.18500 546.000
15.23000 566.000
15.27500 530.000
15.32000 549.000
15.36500 503.000
15.41000 477.000
15.45500 479.000
15.50000 449.000
15.54500 479.000
15.59000 459.000
15.63500 457.000
15.68000 448.000
15.72500 451.000
15.77000 446.000
15.81500 449.000
15.86000 470.000
15.90500 461.000
15.95000 452.000
15.99500 470.000
16.04000 482.000
16.08500 452.000
16.13000 449.000
16.17500 462.000
16.22000 462.000
16.26500 441.000
16.31000 457.000
16.35500 462.000
16.40000 454.000
16.44500 464.000
16.49000 502.000
16.53500 461.000
16.58000 506.000
16.62500 452.000
16.67000 442.000
16.71500 459.000
16.76000 492.000
16.80500 422.000
16.85000 480.000
16.89500 447.000
16.94000 441.000
16.98500 476.000
17.03000 452.000
17.07500 473.000
17.12000 456.000
17.16500 463.000
17.21000 454.000
17.25500 492.000
17.30000 448.000
17.34500 453.000
17.39000 453.000
17.43500 494.000
17.48000 496.000
17.52500 482.000
17.57000 490.000
17.61500 463.000
17.66000 469.000
17.70500 485.000
17.75000 470.000
17.79500 445.000
17.84000 473.000
17.88500 465.000
17.93000 491.000
17.97500 490.000
18.02000 455.000
18.06500 491.000
18.11000 470.000
18.15500 486.000
18.20000 468.000
18.24500 483.000
18.29000 492.000
18.33500 510.000
18.38000 563.000
18.42500 514.000
18.47000 546.000
18.51500 576.000
18.56000 635.000
18.60500 669.000
18.65000 655.000
18.69500 668.000
18.74000 608.000
18.78500 572.000
18.83000 531.000
18.87500 531.000
18.92000 514.000
18.96500 496.000
19.01000 518.000
19.05500 462.000
19.10000 477.000
19.14500 481.000
19.19000 507.000
19.23500 481.000
19.28000 469.000
19.32500 498.000
19.37000 491.000
19.41500 486.000
19.46000 470.000
19.50500 521.000
19.55000 514.000
19.59500 465.000
19.64000 482.000
19.68500 443.000
19.73000 476.000
19.77500 503.000
19.82000 478.000
19.86500 494.000
19.91000 500.000
19.95500 531.000
20.00000 511.000
20.04500 520.000
20.09000 462.000
20.13500 512.000
20.18000 524.000
20.22500 502.000
20.27000 512.000
20.31500 493.000
20.36000 490.000
20.40500 531.000
20.45000 496.000
20.49500 495.000
20.54000 535.000
20.58500 553.000
20.63000 526.000
20.67500 554.000
20.72000 509.000
20.76500 478.000
20.81000 491.000
20.85500 519.000
20.90000 490.000
20.94500 516.000
20.99000 528.000
21.03500 503.000
21.08000 476.000
21.12500 518.000
21.17000 532.000
21.21500 513.000
21.26000 534.000
21.30500 522.000
21.35000 543.000
21.39500 537.000
21.44000 511.000
21.48500 563.000
21.53000 585.000
21.57500 561.000
21.62000 563.000
21.66500 574.000
21.71000 561.000
21.75500 600.000
21.80000 591.000
21.84500 612.000
21.89000 670.000
21.93500 673.000
21.98000 653.000
22.02500 712.000
22.07000 718.000
22.11500 687.000
22.16000 648.000
22.20500 667.000
22.25000 696.000
22.29500 602.000
22.34000 605.000
22.38500 597.000
22.43000 582.000
22.47500 602.000
22.52000 620.000
22.56500 637.000
22.61000 632.000
22.65500 681.000
22.70000 668.000
22.74500 703.000
22.79000 755.000
22.83500 756.000
22.88000 781.000
22.92500 833.000
22.97000 819.000
23.01500 834.000
23.06000 862.000
23.10500 747.000
23.15000 761.000
23.19500 743.000
23.24000 672.000
23.28500 666.000
23.33000 673.000
23.37500 645.000
23.42000 661.000
23.46500 627.000
23.51000 654.000
23.55500 614.000
23.60000 641.000
23.64500 606.000
23.69000 621.000
23.73500 641.000
23.78000 628.000
23.82500 649.000
23.87000 606.000
23.91500 631.000
23.96000 635.000
24.00500 644.000
24.05000 661.000
24.09500 693.000
24.14000 638.000
24.18500 626.000
24.23000 682.000
24.27500 618.000
24.32000 707.000
24.36500 696.000
24.41000 730.000
24.45500 713.000
24.50000 733.000
24.54500 728.000
24.59000 785.000
24.63500 771.000
24.68000 762.000
24.72500 760.000
24.77000 744.000
24.81500 805.000
24.86000 693.000
24.90500 718.000
24.95000 690.000
24.99500 701.000
25.04000 710.000
25.08500 710.000
25.13000 722.000
25.17500 740.000
25.22000 739.000
25.26500 697.000
25.31000 709.000
25.35500 753.000
25.40000 781.000
25.44500 811.000
25.49000 802.000
25.53500 840.000
25.58000 858.000
25.62500 822.000
25.67000 886.000
25.71500 822.000
25.76000 825.000
25.80500 863.000
25.85000 833.000
25.89500 862.000
25.94000 845.000
25.98500 824.000
26.03000 810.000
26.07500 786.000
26.12000 778.000
26.16500 794.000
26.21000 751.000
26.25500 821.000
26.30000 780.000
26.34500 826.000
26.39000 832.000
26.43500 847.000
26.48000 830.000
26.52500 839.000
26.57000 854.000
26.61500 856.000
26.66000 892.000
26.70500 820.000
26.75000 850.000
26.79500 884.000
26.84000 878.000
26.88500 901.000
26.93000 932.000
26.97500 932.000
27.02000 902.000
27.06500 958.000
27.11000 942.000
27.15500 945.000
27.20000 1077.000
27.24500 1054.000
27.29000 1053.000
27.33500 1161.000
27.38000 1275.000
27.42500 1303.000
27.47000 1374.000
27.51500 1644.000
27.56000 1911.000
27.60500 2263.000
27.65000 2885.000
27.69500 3352.000
27.74000 3710.000
27.78500 3650.000
27.83000 3191.000
27.87500 2801.000
27.92000 2750.000
27.96500 2632.000
28.01000 2531.000
28.05500 2315.000
28.10000 2070.000
28.14500 1882.000
28.19000 1839.000
28.23500 1777.000
28.28000 1538.000
28.32500 1475.000
28.37000 1443.000
28.41500 1315.000
28.46000 1262.000
28.50500 1174.000
28.55000 1138.000
28.59500 1051.000
28.64000 1052.000
28.68500 1007.000
28.73000 990.000
28.77500 947.000
28.82000 958.000
28.86500 942.000
28.91000 922.000
28.95500 858.000
29.00000 914.000
29.04500 934.000
29.09000 916.000
29.13500 970.000
29.18000 990.000
29.22500 923.000
29.27000 824.000
29.31500 759.000
29.36000 778.000
29.40500 783.000
29.45000 759.000
29.49500 731.000
29.54000 749.000
29.58500 745.000
29.63000 773.000
29.67500 720.000
29.72000 781.000
29.76500 740.000
29.81000 742.000
29.85500 725.000
29.90000 679.000
29.94500 729.000
29.99000 719.000
30.03500 720.000
30.08000 709.000
30.12500 715.000
30.17000 731.000
30.21500 730.000
30.26000 712.000
30.30500 809.000
30.35000 788.000
30.39500 791.000
30.44000 786.000
30.48500 770.000
30.53000 808.000
30.57500 764.000
30.62000 755.000
30.66500 784.000
30.71000 761.000
30.75500 744.000
30.80000 699.000
30.84500 720.000
30.89000 691.000
30.93500 682.000
30.98000 611.000
31.02500 669.000
31.07000 660.000
31.11500 641.000
31.16000 615.000
31.20500 617.000
31.25000 589.000
31.29500 640.000
31.34000 618.000
31.38500 626.000
31.43000 631.000
31.47500 680.000
31.52000 623.000
31.56500 629.000
31.61000 637.000
31.65500 569.000
31.70000 629.000
31.74500 664.000
31.79000 615.000
31.83500 608.000
31.88000 628.000
31.92500 645.000
31.97000 599.000
32.01500 639.000
32.06000 643.000
32.10500 641.000
32.15000 646.000
32.19500 588.000
32.24000 731.000
32.28500 758.000
32.33000 771.000
32.37500 775.000
32.42000 741.000
32.46500 701.000
32.51000 649.000
32.55500 593.000
32.60000 548.000
32.64500 569.000
32.69000 540.000
32.73500 472.000
32.78000 513.000
32.82500 536.000
32.87000 480.000
32.91500 502.000
32.96000 480.000
33.00500 461.000
33.05000 452.000
33.09500 446.000
33.14000 456.000
33.18500 428.000
33.23000 446.000
33.27500 439.000
33.32000 465.000
33.36500 422.000
33.41000 433.000
33.45500 414.000
33.50000 421.000
33.54500 437.000
33.59000 458.000
33.63500 451.000
33.68000 460.000
33.72500 451.000
33.77000 432.000
33.81500 429.000
33.86000 456.000
33.90500 433.000
33.95000 412.000
33.99500 463.000
34.04000 411.000
34.08500 448.000
34.13000 439.000
34.17500 459.000
34.22000 459.000
34.26500 444.000
34.31000 420.000
34.35500 465.000
34.40000 435.000
34.44500 424.000
34.49000 440.000
34.53500 374.000
34.58000 465.000
34.62500 426.000
34.67000 442.000
34.71500 434.000
34.76000 463.000
34.80500 448.000
34.85000 450.000
34.89500 478.000
34.94000 494.000
34.98500 446.000
35.03000 485.000
35.07500 481.000
35.12000 512.000
35.16500 536.000
35.21000 519.000
35.25500 554.000
35.30000 586.000
35.34500 637.000
35.39000 699.000
35.43500 917.000
35.48000 969.000
35.52500 859.000
35.57000 717.000
35.61500 599.000
35.66000 565.000
35.70500 481.000
35.75000 520.000
35.79500 471.000
35.84000 480.000
35.88500 459.000
35.93000 451.000
35.97500 492.000
36.02000 475.000
36.06500 486.000
36.11000 529.000
36.15500 530.000
36.20000 528.000
36.24500 531.000
36.29000 539.000
36.33500 553.000
36.38000 527.000
36.42500 540.000
36.47000 529.000
36.51500 560.000
36.56000 553.000
36.60500 565.000
36.65000 551.000
36.69500 538.000
36.74000 482.000
36.78500 462.000
36.83000 458.000
36.87500 396.000
36.92000 471.000
36.96500 414.000
37.01000 440.000
37.05500 453.000
37.10000 482.000
37.14500 473.000
37.19000 470.000
37.23500 530.000
37.28000 490.000
37.32500 524.000
37.37000 535.000
37.41500 519.000
37.46000 513.000
37.50500 512.000
37.55000 486.000
37.59500 521.000
37.64000 519.000
37.68500 465.000
37.73000 506.000
37.77500 511.000
37.82000 492.000
37.86500 450.000
37.91000 435.000
37.95500 494.000
38.00000 456.000
38.04500 483.000
38.09000 476.000
38.13500 426.000
38.18000 453.000
38.22500 471.000
38.27000 478.000
38.31500 492.000
38.36000 489.000
38.40500 452.000
38.45000 463.000
38.49500 470.000
38.54000 498.000
38.58500 480.000
38.63000 431.000
38.67500 477.000
38.72000 497.000
38.76500 479.000
38.81000 466.000
38.85500 452.000
38.90000 482.000
38.94500 430.000
38.99000 418.000
39.03500 436.000
39.08000 393.000
39.12500 400.000
39.17000 361.000
39.21500 382.000
39.26000 355.000
39.30500 368.000
39.35000 375.000
39.39500 399.000
39.44000 382.000
39.48500 357.000
39.53000 408.000
39.57500 377.000
39.62000 417.000
39.66500 414.000
39.71000 431.000
39.75500 402.000
39.80000 403.000
39.84500 409.000
39.89000 399.000
39.93500 443.000
39.98000 453.000
40.02500 428.000
40.07000 419.000
40.11500 440.000
40.16000 441.000
40.20500 429.000
40.25000 442.000
40.29500 432.000
40.34000 428.000
40.38500 444.000
40.43000 424.000
40.47500 447.000
40.52000 397.000
40.56500 410.000
40.61000 418.000
40.65500 406.000
40.70000 390.000
40.74500 395.000
40.79000 383.000
40.83500 392.000
40.88000 378.000
40.92500 333.000
40.97000 360.000
41.01500 367.000
41.06000 352.000
41.10500 374.000
41.15000 379.000
41.19500 391.000
41.24000 385.000
41.28500 357.000
41.33000 363.000
41.37500 367.000
41.42000 359.000
41.46500 352.000
41.51000 379.000
41.55500 392.000
41.60000 371.000
41.64500 351.000
41.69000 351.000
41.73500 368.000
41.78000 371.000
41.82500 347.000
41.87000 341.000
41.91500 316.000
41.96000 357.000
42.00500 366.000
42.05000 348.000
42.09500 361.000
42.14000 358.000
42.18500 343.000
42.23000 351.000
42.27500 353.000
42.32000 340.000
42.36500 359.000
42.41000 374.000
42.45500 326.000
42.50000 366.000
42.54500 367.000
42.59000 395.000
42.63500 387.000
42.68000 371.000
42.72500 401.000
42.77000 348.000
42.81500 395.000
42.86000 365.000
42.90500 396.000
42.95000 419.000
42.99500 442.000
43.04000 457.000
43.08500 476.000
43.13000 482.000
43.17500 552.000
43.22000 599.000
43.26500 595.000
43.31000 663.000
43.35500 586.000
43.40000 519.000
43.44500 498.000
43.49000 485.000
43.53500 472.000
43.58000 451.000
43.62500 415.000
43.67000 408.000
43.71500 400.000
43.76000 425.000
43.80500 408.000
43.85000 391.000
43.89500 375.000
43.94000 362.000
43.98500 361.000
44.03000 377.000
44.07500 379.000
44.12000 393.000
44.16500 405.000
44.21000 379.000
44.25500 396.000
44.30000 446.000
44.34500 483.000
44.39000 412.000
44.43500 456.000
44.48000 461.000
44.52500 448.000
44.57000 451.000
44.61500 424.000
44.66000 423.000
44.70500 447.000
44.75000 404.000
44.79500 385.000
44.84000 434.000
44.88500 444.000
44.93000 401.000
44.97500 389.000
45.02000 381.000
45.06500 388.000
45.11000 384.000
45.15500 431.000
45.20000 414.000
45.24500 393.000
45.29000 373.000
45.33500 392.000
45.38000 376.000
45.42500 380.000
45.47000 370.000
45.51500 395.000
45.56000 398.000
45.60500 378.000
45.65000 371.000
45.69500 381.000
45.74000 407.000
45.78500 388.000
45.83000 370.000
45.87500 350.000
45.92000 374.000
45.96500 369.000
46.01000 365.000
46.05500 381.000
46.10000 380.000
46.14500 404.000
46.19000 383.000
46.23500 384.000
46.28000 390.000
46.32500 400.000
46.37000 367.000
46.41500 355.000
46.46000 368.000
46.50500 377.000
46.55000 366.000
46.59500 344.000
46.64000 336.000
46.68500 351.000
46.73000 335.000
46.77500 397.000
46.82000 363.000
46.86500 342.000
46.91000 361.000
46.95500 322.000
47.00000 333.000
47.04500 331.000
47.09000 348.000
47.13500 343.000
47.18000 356.000
47.22500 323.000
47.27000 302.000
47.31500 308.000
47.36000 308.000
47.40500 321.000
47.45000 293.000
47.49500 307.000
47.54000 292.000
47.58500 260.000
47.63000 312.000
47.67500 285.000
47.72000 300.000
47.76500 310.000
47.81000 308.000
47.85500 320.000
47.90000 302.000
47.94500 294.000
47.99000 297.000
48.03500 307.000
48.08000 292.000
48.12500 302.000
48.17000 285.000
48.21500 291.000
48.26000 299.000
48.30500 271.000
48.35000 290.000
48.39500 296.000
48.44000 276.000
48.48500 279.000
48.53000 266.000
48.57500 286.000
48.62000 313.000
48.66500 295.000
48.71000 271.000
48.75500 267.000
48.80000 281.000
48.84500 290.000
48.89000 271.000
48.93500 282.000
48.98000 274.000
49.02500 296.000
49.07000 265.000
49.11500 275.000
49.16000 269.000
49.20500 273.000
49.25000 278.000
49.29500 284.000
49.34000 292.000
49.38500 258.000
49.43000 280.000
49.47500 266.000
49.52000 258.000
49.56500 281.000
49.61000 281.000
49.65500 272.000
49.70000 268.000
49.74500 299.000
49.79000 292.000
49.83500 284.000
49.88000 273.000
49.92500 279.000
49.97000 314.000
50.01500 323.000
50.06000 305.000
50.10500 335.000
50.15000 323.000
50.19500 317.000
50.24000 283.000
50.28500 313.000
50.33000 291.000
50.37500 310.000
50.42000 292.000
50.46500 290.000
50.51000 278.000
50.55500 278.000
50.60000 284.000
50.64500 296.000
50.69000 290.000
50.73500 293.000
50.78000 287.000
50.82500 269.000
50.87000 282.000
50.91500 288.000
50.96000 288.000
51.00500 305.000
51.05000 312.000
51.09500 282.000
51.14000 293.000
51.18500 288.000
51.23000 297.000
51.27500 313.000
51.32000 298.000
51.36500 287.000
51.41000 278.000
51.45500 283.000
51.50000 270.000
51.54500 312.000
51.59000 271.000
51.63500 273.000
51.68000 321.000
51.72500 265.000
51.77000 264.000
51.81500 284.000
51.86000 269.000
51.90500 278.000
51.95000 272.000
51.99500 277.000
52.04000 251.000
52.08500 271.000
52.13000 260.000
52.17500 256.000
52.22000 251.000
52.26500 292.000
52.31000 278.000
52.35500 292.000
52.40000 267.000
52.44500 267.000
52.49000 253.000
52.53500 274.000
52.58000 292.000
52.62500 302.000
52.67000 280.000
52.71500 296.000
52.76000 280.000
52.80500 301.000
52.85000 274.000
52.89500 284.000
52.94000 302.000
52.98500 285.000
53.03000 270.000
53.07500 293.000
53.12000 295.000
53.16500 277.000
53.21000 268.000
53.25500 287.000
53.30000 290.000
53.34500 268.000
53.39000 279.000
53.43500 264.000
53.48000 283.000
53.52500 284.000
53.57000 275.000
53.61500 276.000
53.66000 263.000
53.70500 296.000
53.75000 267.000
53.79500 262.000
53.84000 257.000
53.88500 277.000
53.93000 284.000
53.97500 275.000
54.02000 262.000
54.06500 267.000
54.11000 279.000
54.15500 281.000
54.20000 280.000
54.24500 285.000
54.29000 282.000
54.33500 295.000
54.38000 263.000
54.42500 275.000
54.47000 263.000
54.51500 258.000
54.56000 254.000
54.60500 257.000
54.65000 262.000
54.69500 285.000
54.74000 252.000
54.78500 243.000
54.83000 245.000
54.87500 248.000
54.92000 257.000
54.96500 247.000
55.01000 256.000
55.05500 261.000
55.10000 262.000
55.14500 239.000
55.19000 259.000
55.23500 230.000
55.28000 240.000
55.32500 261.000
55.37000 276.000
55.41500 233.000
55.46000 275.000
55.50500 250.000
55.55000 242.000
55.59500 242.000
55.64000 270.000
55.68500 275.000
55.73000 269.000
55.77500 236.000
55.82000 247.000
55.86500 260.000
55.91000 255.000
55.95500 218.000
56.00000 249.000
56.04500 234.000
56.09000 284.000
56.13500 255.000
56.18000 254.000
56.22500 260.000
56.27000 274.000
56.31500 255.000
56.36000 245.000
56.40500 267.000
56.45000 232.000
56.49500 242.000
56.54000 235.000
56.58500 256.000
56.63000 244.000
56.67500 268.000
56.72000 256.000
56.76500 287.000
56.81000 250.000
56.85500 265.000
56.90000 270.000
56.94500 279.000
56.99000 274.000
57.03500 288.000
57.08000 276.000
57.12500 290.000
57.17000 283.000
57.21500 305.000
57.26000 287.000
57.30500 304.000
57.35000 306.000
57.39500 297.000
57.44000 292.000
57.48500 301.000
57.53000 286.000
57.57500 322.000
57.62000 315.000
57.66500 313.000
57.71000 299.000
57.75500 275.000
57.80000 272.000
57.84500 297.000
57.89000 273.000
57.93500 274.000
57.98000 290.000
58.02500 264.000
58.07000 289.000
58.11500 248.000
58.16000 313.000
58.20500 246.000
58.25000 281.000
58.29500 275.000
58.34000 253.000
58.38500 281.000
58.43000 279.000
58.47500 269.000
58.52000 287.000
58.56500 271.000
58.61000 250.000
58.65500 271.000
58.70000 275.000
58.74500 231.000
58.79000 232.000
58.83500 270.000
58.88000 235.000
58.92500 233.000
58.97000 252.000
59.01500 275.000
59.06000 264.000
59.10500 253.000
59.15000 255.000
59.19500 237.000
59.24000 228.000
59.28500 248.000
59.33000 239.000
59.37500 268.000
59.42000 246.000
59.46500 245.000
59.51000 248.000
59.55500 234.000
59.60000 232.000
59.64500 224.000
59.69000 241.000
59.73500 229.000
59.78000 238.000
59.82500 259.000
59.87000 262.000
59.91500 236.000
59.96000 251.000
60.00500 246.000
60.05000 219.000
60.09500 240.000
60.14000 226.000
60.18500 226.000
60.23000 241.000
60.27500 253.000
60.32000 254.000
60.36500 236.000
60.41000 259.000
60.45500 256.000
60.50000 260.000
60.54500 250.000
60.59000 274.000
60.63500 229.000
60.68000 243.000
60.72500 220.000
60.77000 226.000
60.81500 253.000
60.86000 264.000
60.90500 234.000
60.95000 256.000
60.99500 246.000
61.04000 264.000
61.08500 243.000
61.13000 239.000
61.17500 234.000
61.22000 267.000
61.26500 235.000
61.31000 236.000
61.35500 230.000
61.40000 243.000
61.44500 233.000
61.49000 246.000
61.53500 216.000
61.58000 252.000
61.62500 250.000
61.67000 216.000
61.71500 211.000
61.76000 212.000
61.80500 216.000
61.85000 217.000
61.89500 212.000
61.94000 229.000
61.98500 211.000