File: ISoD/xrd_data/HSC196_NM_ranges_combined.xy
2.0 35.0
2.045 29.0
2.09 25.0
2.135 26.0
2.18 32.0
2.225 33.0
2.27 40.0
2.315 28.0
2.36 24.0
2.405 41.0
2.45 21.0
2.495 35.0
2.54 25.0
2.585 30.0
2.63 24.0
2.675 37.0
2.72 120.0
2.765 246.0
2.81 623.0
2.855 1196.0
2.9 1798.0
2.945 1956.0
2.99 2073.0
3.035 2053.0
3.08 2056.0
3.125 2126.0
3.17 2040.0
3.215 2201.0
3.26 2203.0
3.305 2166.0
3.35 2244.0
3.395 2151.0
3.44 2299.0
3.485 2353.0
3.53 2320.0
3.575 2352.0
3.62 2363.0
3.665 2385.0
3.71 2470.0
3.755 2495.0
3.8 2436.0
3.845 2427.0
3.89 2433.0
3.935 2566.0
3.98 2593.0
4.025 2584.0
4.07 2673.0
4.115 2625.0
4.16 2700.0
4.205 2667.0
4.25 2652.0
4.295 2695.0
4.34 2790.0
4.385 2750.0
4.43 2772.0
4.475 2754.0
4.52 2811.0
4.565 2782.0
4.61 2850.0
4.655 2833.0
4.7 2951.0
4.745 2891.0
4.79 2979.0
4.835 2947.0
4.88 2962.0
4.925 2920.0
4.97 2925.0
5.015 3028.0
5.06 3020.0
5.105 2963.0
5.15 3114.0
5.195 3070.0
5.24 3014.0
5.285 2987.0
5.33 3032.0
5.375 3178.0
5.42 3186.0
5.465 3126.0
5.51 3210.0
5.555 3190.0
5.6 3219.0
5.645 3184.0
5.69 3184.0
5.735 3215.0
5.78 3356.0
5.825 3255.0
5.87 3230.0
5.915 3307.0
5.96 3328.0
6.005 3241.0
6.05 3331.0
6.095 3368.0
6.14 3296.0
6.185 3337.0
6.23 3376.0
6.275 3405.0
6.32 3442.0
6.365 3411.0
6.41 3414.0
6.455 3443.0
6.5 3284.0
6.545 3550.0
6.59 3549.0
6.635 3434.0
6.68 3575.0
6.725 3565.0
6.77 3542.0
6.815 3472.0
6.86 3505.0
6.905 3525.0
6.95 3598.0
6.995 3678.0
7.04 3583.0
7.085 3626.0
7.13 3633.0
7.175 3650.0
7.22 3671.0
7.265 3720.0
7.31 3789.0
7.355 3792.0
7.4 3749.0
7.445 3726.0
7.49 3839.0
7.535 3959.0
7.58 4132.0
7.625 4390.0
7.67 4657.0
7.715 5073.0
7.76 5842.0
7.805 6706.0
7.85 8118.0
7.895 10413.0
7.94 14042.0
7.985 14147.0
8.03 8294.0
8.075 6397.0
8.12 5666.0
8.165 5171.0
8.21 4832.0
8.255 4726.0
8.3 4590.0
8.345 4469.0
8.39 4461.0
8.435 4381.0
8.48 4345.0
8.525 4330.0
8.57 4314.0
8.615 4295.0
8.66 4285.0
8.705 4132.0
8.75 4188.0
8.795 4289.0
8.84 4256.0
8.885 4228.0
8.93 4250.0
8.975 4387.0
9.02 4238.0
9.065 4176.0
9.11 4213.0
9.155 4260.0
9.2 4284.0
9.245 4285.0
9.29 4301.0
9.335 4269.0
9.38 4270.0
9.425 4204.0
9.47 4296.0
9.515 4366.0
9.56 4409.0
9.605 4471.0
9.65 4503.0
9.695 4543.0
9.74 4749.0
9.785 4853.0
9.83 5092.0
9.875 5326.0
9.92 5873.0
9.965 6373.0
10.01 7160.0
10.055 7731.0
10.1 7763.0
10.145 7358.0
10.19 6484.0
10.235 5702.0
10.28 5163.0
10.325 4812.0
10.37 4541.0
10.415 4521.0
10.46 4353.0
10.505 4304.0
10.55 4247.0
10.595 4352.0
10.64 4092.0
10.685 4140.0
10.73 4187.0
10.775 4137.0
10.82 4105.0
10.865 3991.0
10.91 4026.0
10.955 4087.0
11.0 3984.0
11.045 4066.0
11.09 4105.0
11.135 4130.0
11.18 4110.0
11.225 4030.0
11.27 3988.0
11.315 4040.0
11.36 4064.0
11.405 4024.0
11.45 4000.0
11.495 4178.0
11.54 3991.0
11.585 4112.0
11.63 4023.0
11.675 4057.0
11.72 3982.0
11.765 4013.0
11.81 3982.0
11.855 3897.0
11.9 3998.0
11.945 3976.0
11.99 4034.0
12.035 3913.0
12.08 4102.0
12.125 3917.0
12.17 4025.0
12.215 3952.0
12.26 3884.0
12.305 4024.0
12.35 3912.0
12.395 3913.0
12.44 3873.0
12.485 3865.0
12.53 3942.0
12.575 3912.0
12.62 3951.0
12.665 3953.0
12.71 3962.0
12.755 3918.0
12.8 4030.0
12.845 3899.0
12.89 3949.0
12.935 3859.0
12.98 3894.0
13.025 3842.0
13.07 3953.0
13.115 3942.0
13.16 3863.0
13.205 3878.0
13.25 3840.0
13.295 3917.0
13.34 3949.0
13.385 3881.0
13.43 3929.0
13.475 3908.0
13.52 3858.0
13.565 3943.0
13.61 3845.0
13.655 3915.0
13.7 3869.0
13.745 3844.0
13.79 3910.0
13.835 3888.0
13.88 3893.0
13.925 3831.0
13.97 3879.0
14.015 3936.0
14.06 3824.0
14.105 3896.0
14.15 3973.0
14.195 3982.0
14.24 3910.0
14.285 3845.0
14.33 3831.0
14.375 3879.0
14.42 3863.0
14.465 3869.0
14.51 3863.0
14.555 3951.0
14.6 3886.0
14.645 3975.0
14.69 3945.0
14.735 3919.0
14.78 3882.0
14.825 3977.0
14.87 4055.0
14.915 4092.0
14.96 4271.0
15.005 4497.0
15.05 4376.0
15.095 4692.0
15.14 4654.0
15.185 4735.0
15.23 4712.0
15.275 4488.0
15.32 4471.0
15.365 4097.0
15.41 4128.0
15.455 3958.0
15.5 3978.0
15.545 3879.0
15.59 3976.0
15.635 3968.0
15.68 3832.0
15.725 3870.0
15.77 3819.0
15.815 3846.0
15.86 3874.0
15.905 3945.0
15.95 3920.0
15.995 3976.0
16.04 3911.0
16.085 3956.0
16.13 3848.0
16.175 3905.0
16.22 3830.0
16.265 3916.0
16.31 3861.0
16.355 3818.0
16.4 3810.0
16.445 3796.0
16.49 3975.0
16.535 3844.0
16.58 4008.0
16.625 3844.0
16.67 3799.0
16.715 3793.0
16.76 3940.0
16.805 3878.0
16.85 3900.0
16.895 3841.0
16.94 3819.0
16.985 3968.0
17.03 3923.0
17.075 3881.0
17.12 3907.0
17.165 3873.0
17.21 3853.0
17.255 3989.0
17.3 3950.0
17.345 3809.0
17.39 3898.0
17.435 3906.0
17.48 3980.0
17.525 4024.0
17.57 3835.0
17.615 3842.0
17.66 3995.0
17.705 3942.0
17.75 3984.0
17.795 4009.0
17.84 4036.0
17.885 4006.0
17.93 3915.0
17.975 4044.0
18.02 3966.0
18.065 3959.0
18.11 4019.0
18.155 4005.0
18.2 4048.0
18.245 4071.0
18.29 3999.0
18.335 4194.0
18.38 4408.0
18.425 4398.0
18.47 4614.0
18.515 4916.0
18.56 5133.0
18.605 5483.0
18.65 5490.0
18.695 5334.0
18.74 5079.0
18.785 4858.0
18.83 4489.0
18.875 4369.0
18.92 4319.0
18.965 4188.0
19.01 4210.0
19.055 4039.0
19.1 4120.0
19.145 4095.0
19.19 4124.0
19.235 4055.0
19.28 4005.0
19.325 4070.0
19.37 4050.0
19.415 4012.0
19.46 4065.0
19.505 4065.0
19.55 4071.0
19.595 4085.0
19.64 4071.0
19.685 4083.0
19.73 4159.0
19.775 4140.0
19.82 4121.0
19.865 4099.0
19.91 4160.0
19.955 4144.0
20.0 4154.0
20.045 4200.0
20.09 4176.0
20.135 4140.0
20.18 4277.0
20.225 4175.0
20.27 4183.0
20.315 4224.0
20.36 4265.0
20.405 4275.0
20.45 4189.0
20.495 4381.0
20.54 4287.0
20.585 4335.0
20.63 4240.0
20.675 4305.0
20.72 4255.0
20.765 4147.0
20.81 4209.0
20.855 4298.0
20.9 4375.0
20.945 4319.0
20.99 4335.0
21.035 4353.0
21.08 4377.0
21.125 4435.0
21.17 4413.0
21.215 4505.0
21.26 4507.0
21.305 4475.0
21.35 4522.0
21.395 4561.0
21.44 4433.0
21.485 4647.0
21.53 4573.0
21.575 4651.0
21.62 4679.0
21.665 4713.0
21.71 4656.0
21.755 4858.0
21.8 4908.0
21.845 5307.0
21.89 5392.0
21.935 5450.0
21.98 5466.0
22.025 5741.0
22.07 5792.0
22.115 5759.0
22.16 5520.0
22.205 5425.0
22.25 5442.0
22.295 5183.0
22.34 5298.0
22.385 5109.0
22.43 5067.0
22.475 5117.0
22.52 5169.0
22.565 5313.0
22.61 5293.0
22.655 5433.0
22.7 5622.0
22.745 5828.0
22.79 6124.0
22.835 6490.0
22.88 6641.0
22.925 6932.0
22.97 6960.0
23.015 6889.0
23.06 6799.0
23.105 6311.0
23.15 6179.0
23.195 6049.0
23.24 5624.0
23.285 5612.0
23.33 5476.0
23.375 5456.0
23.42 5413.0
23.465 5206.0
23.51 5303.0
23.555 5318.0
23.6 5193.0
23.645 5147.0
23.69 5205.0
23.735 5284.0
23.78 5208.0
23.825 5272.0
23.87 5155.0
23.915 5290.0
23.96 5339.0
24.005 5435.0
24.05 5688.0
24.095 5606.0
24.14 5399.0
24.185 5417.0
24.23 5547.0
24.275 5580.0
24.32 5775.0
24.365 5756.0
24.41 5926.0
24.455 5891.0
24.5 6105.0
24.545 6112.0
24.59 6202.0
24.635 6294.0
24.68 6227.0
24.725 6253.0
24.77 6059.0
24.815 6056.0
24.86 5995.0
24.905 6031.0
24.95 5869.0
24.995 6076.0
25.04 5998.0
25.085 6088.0
25.13 5955.0
25.175 5912.0
25.22 6165.0
25.265 6036.0
25.31 6227.0
25.355 6269.0
25.4 6556.0
25.445 6576.0
25.49 6769.0
25.535 6851.0
25.58 6930.0
25.625 7045.0
25.67 7106.0
25.715 6997.0
25.76 7017.0
25.805 7080.0
25.85 6944.0
25.895 6705.0
25.94 6672.0
25.985 6691.0
26.03 6431.0
26.075 6553.0
26.12 6536.0
26.165 6477.0
26.21 6517.0
26.255 6644.0
26.3 6662.0
26.345 6678.0
26.39 6719.0
26.435 6866.0
26.48 6846.0
26.525 6836.0
26.57 6934.0
26.615 6828.0
26.66 7141.0
26.705 6994.0
26.75 7147.0
26.795 7287.0
26.84 7297.0
26.885 7344.0
26.93 7453.0
26.975 7671.0
27.02 7697.0
27.065 7653.0
27.11 8138.0
27.155 8307.0
27.2 8361.0
27.245 8639.0
27.29 9002.0
27.335 9283.0
27.38 9923.0
27.425 10668.0
27.47 11564.0
27.515 13474.0
27.56 15837.0
27.605 19049.0
27.65 23621.0
27.695 27846.0
27.74 30047.0
27.785 29162.0
27.83 26022.0
27.875 23725.0
27.92 22530.0
27.965 21333.0
28.01 20780.0
28.055 19097.0
28.1 17644.0
28.145 16035.0
28.19 15286.0
28.235 14191.0
28.28 13123.0
28.325 12454.0
28.37 11394.0
28.415 10801.0
28.46 10319.0
28.505 9710.0
28.55 9276.0
28.595 8799.0
28.64 8415.0
28.685 8335.0
28.73 8161.0
28.775 7873.0
28.82 7699.0
28.865 7461.0
28.91 7341.0
28.955 7460.0
29.0 7439.0
29.045 7439.0
29.09 7673.0
29.135 7817.0
29.18 7888.0
29.225 7320.0
29.27 6793.0
29.315 6527.0
29.36 6266.0
29.405 6429.0
29.45 6063.0
29.495 6185.0
29.54 5979.0
29.585 6120.0
29.63 6094.0
29.675 6157.0
29.72 6206.0
29.765 6212.0
29.81 6092.0
29.855 6071.0
29.9 6064.0
29.945 5913.0
29.99 6056.0
30.035 5926.0
30.08 5876.0
30.125 5984.0
30.17 6139.0
30.215 6217.0
30.26 6125.0
30.305 6356.0
30.35 6460.0
30.395 6381.0
30.44 6433.0
30.485 6456.0
30.53 6441.0
30.575 6242.0
30.62 6224.0
30.665 6309.0
30.71 6101.0
30.755 5861.0
30.8 5804.0
30.845 5728.0
30.89 5618.0
30.935 5563.0
30.98 5326.0
31.025 5382.0
31.07 5198.0
31.115 5099.0
31.16 5050.0
31.205 5023.0
31.25 4978.0
31.295 5125.0
31.34 5196.0
31.385 5229.0
31.43 5157.0
31.475 5270.0
31.52 5148.0
31.565 5152.0
31.61 5142.0
31.655 5083.0
31.7 5014.0
31.745 5050.0
31.79 5116.0
31.835 5102.0
31.88 5056.0
31.925 5108.0
31.97 4967.0
32.015 5175.0
32.06 5016.0
32.105 5017.0
32.15 5177.0
32.195 5217.0
32.24 5680.0
32.285 6137.0
32.33 6343.0
32.375 6334.0
32.42 6182.0
32.465 5581.0
32.51 5080.0
32.555 4742.0
32.6 4490.0
32.645 4475.0
32.69 4279.0
32.735 4187.0
32.78 4165.0
32.825 4125.0
32.87 3984.0
32.915 3892.0
32.96 3902.0
33.005 3900.0
33.05 3721.0
33.095 3795.0
33.14 3719.0
33.185 3714.0
33.23 3698.0
33.275 3644.0
33.32 3704.0
33.365 3566.0
33.41 3660.0
33.455 3604.0
33.5 3562.0
33.545 3618.0
33.59 3624.0
33.635 3659.0
33.68 3648.0
33.725 3676.0
33.77 3516.0
33.815 3518.0
33.86 3724.0
33.905 3668.0
33.95 3573.0
33.995 3673.0
34.04 3520.0
34.085 3583.0
34.13 3592.0
34.175 3570.0
34.22 3527.0
34.265 3535.0
34.31 3560.0
34.355 3604.0
34.4 3581.0
34.445 3478.0
34.49 3588.0
34.535 3572.0
34.58 3584.0
34.625 3506.0
34.67 3665.0
34.715 3615.0
34.76 3563.0
34.805 3570.0
34.85 3634.0
34.895 3750.0
34.94 3711.0
34.985 3705.0
35.03 3799.0
35.075 3861.0
35.12 3995.0
35.165 4077.0
35.21 4127.0
35.255 4250.0
35.3 4633.0
35.345 4988.0
35.39 5705.0
35.435 7216.0
35.48 7864.0
35.525 7071.0
35.57 5704.0
35.615 4886.0
35.66 4540.0
35.705 4233.0
35.75 4039.0
35.795 3936.0
35.84 3862.0
35.885 3817.0
35.93 3844.0
35.975 3838.0
36.02 3831.0
36.065 3977.0
36.11 4063.0
36.155 4284.0
36.2 4224.0
36.245 4204.0
36.29 4315.0
36.335 4313.0
36.38 4356.0
36.425 4511.0
36.47 4416.0
36.515 4506.0
36.56 4411.0
36.605 4284.0
36.65 4333.0
36.695 4191.0
36.74 3956.0
36.785 3829.0
36.83 3728.0
36.875 3513.0
36.92 3670.0
36.965 3605.0
37.01 3722.0
37.055 3764.0
37.1 3840.0
37.145 3805.0
37.19 3913.0
37.235 4051.0
37.28 4102.0
37.325 4241.0
37.37 4243.0
37.415 4118.0
37.46 4177.0
37.505 4213.0
37.55 4012.0
37.595 4188.0
37.64 4035.0
37.685 3922.0
37.73 4034.0
37.775 3988.0
37.82 3992.0
37.865 3844.0
37.91 3765.0
37.955 3842.0
38.0 3767.0
38.045 3785.0
38.09 3754.0
38.135 3654.0
38.18 3696.0
38.225 3704.0
38.27 3619.0
38.315 3607.0
38.36 3708.0
38.405 3696.0
38.45 3730.0
38.495 3818.0
38.54 3853.0
38.585 3994.0
38.63 3697.0
38.675 3943.0
38.72 3694.0
38.765 3769.0
38.81 3666.0
38.855 3687.0
38.9 3714.0
38.945 3525.0
38.99 3505.0
39.035 3474.0
39.08 3332.0
39.125 3257.0
39.17 3194.0
39.215 3137.0
39.26 3090.0
39.305 3114.0
39.35 3175.0
39.395 3090.0
39.44 3087.0
39.485 3067.0
39.53 3112.0
39.575 3151.0
39.62 3234.0
39.665 3214.0
39.71 3250.0
39.755 3256.0
39.8 3261.0
39.845 3361.0
39.89 3389.0
39.935 3487.0
39.98 3469.0
40.025 3499.0
40.07 3575.0
40.115 3543.0
40.16 3444.0
40.205 3489.0
40.25 3448.0
40.295 3486.0
40.34 3427.0
40.385 3411.0
40.43 3552.0
40.475 3582.0
40.52 3293.0
40.565 3417.0
40.61 3394.0
40.655 3377.0
40.7 3279.0
40.745 3209.0
40.79 3174.0
40.835 3074.0
40.88 3051.0
40.925 3013.0
40.97 2965.0
41.015 3085.0
41.06 3021.0
41.105 3045.0
41.15 2984.0
41.195 3010.0
41.24 2976.0
41.285 2997.0
41.33 2894.0
41.375 2940.0
41.42 2928.0
41.465 2845.0
41.51 2903.0
41.555 2917.0
41.6 2983.0
41.645 2808.0
41.69 2871.0
41.735 2955.0
41.78 2923.0
41.825 2850.0
41.87 2821.0
41.915 2765.0
41.96 2840.0
42.005 2819.0
42.05 2769.0
42.095 2837.0
42.14 2757.0
42.185 2790.0
42.23 2815.0
42.275 2787.0
42.32 2844.0
42.365 2845.0
42.41 2967.0
42.455 2855.0
42.5 2988.0
42.545 2936.0
42.59 2956.0
42.635 2988.0
42.68 2954.0
42.725 3010.0
42.77 3071.0
42.815 3064.0
42.86 3036.0
42.905 3168.0
42.95 3209.0
42.995 3480.0
43.04 3629.0
43.085 3831.0
43.13 3916.0
43.175 4372.0
43.22 4659.0
43.265 4950.0
43.31 5076.0
43.355 4759.0
43.4 4343.0
43.445 4050.0
43.49 3915.0
43.535 3728.0
43.58 3593.0
43.625 3562.0
43.67 3343.0
43.715 3266.0
43.76 3208.0
43.805 3088.0
43.85 3114.0
43.895 3070.0
43.94 3059.0
43.985 3007.0
44.03 3061.0
44.075 3001.0
44.12 3101.0
44.165 3273.0
44.21 3240.0
44.255 3278.0
44.3 3547.0
44.345 3688.0
44.39 3759.0
44.435 3613.0
44.48 3505.0
44.525 3525.0
44.57 3437.0
44.615 3329.0
44.66 3372.0
44.705 3416.0
44.75 3209.0
44.795 3178.0
44.84 3301.0
44.885 3234.0
44.93 3281.0
44.975 3237.0
45.02 3189.0
45.065 3257.0
45.11 3207.0
45.155 3238.0
45.2 3145.0
45.245 3195.0
45.29 3156.0
45.335 3108.0
45.38 3093.0
45.425 3108.0
45.47 3006.0
45.515 3120.0
45.56 3064.0
45.605 3020.0
45.65 3089.0
45.695 3069.0
45.74 3088.0
45.785 3044.0
45.83 2993.0
45.875 2913.0
45.92 3011.0
45.965 2974.0
46.01 3061.0
46.055 3000.0
46.1 3083.0
46.145 3161.0
46.19 3063.0
46.235 3070.0
46.28 2972.0
46.325 3093.0
46.37 2960.0
46.415 2900.0
46.46 2940.0
46.505 2877.0
46.55 2847.0
46.595 2803.0
46.64 2727.0
46.685 2755.0
46.73 2817.0
46.775 2802.0
46.82 2804.0
46.865 2753.0
46.91 2790.0
46.955 2679.0
47.0 2754.0
47.045 2669.0
47.09 2736.0
47.135 2685.0
47.18 2638.0
47.225 2595.0
47.27 2541.0
47.315 2532.0
47.36 2529.0
47.405 2534.0
47.45 2407.0
47.495 2438.0
47.54 2382.0
47.585 2321.0
47.63 2388.0
47.675 2444.0
47.72 2413.0
47.765 2351.0
47.81 2386.0
47.855 2366.0
47.9 2370.0
47.945 2347.0
47.99 2476.0
48.035 2443.0
48.08 2331.0
48.125 2343.0
48.17 2309.0
48.215 2326.0
48.26 2271.0
48.305 2304.0
48.35 2326.0
48.395 2283.0
48.44 2227.0
48.485 2202.0
48.53 2179.0
48.575 2217.0
48.62 2230.0
48.665 2274.0
48.71 2151.0
48.755 2177.0
48.8 2224.0
48.845 2230.0
48.89 2202.0
48.935 2161.0
48.98 2141.0
49.025 2232.0
49.07 2297.0
49.115 2197.0
49.16 2159.0
49.205 2119.0
49.25 2196.0
49.295 2291.0
49.34 2283.0
49.385 2207.0
49.43 2284.0
49.475 2193.0
49.52 2202.0
49.565 2175.0
49.61 2199.0
49.655 2238.0
49.7 2198.0
49.745 2162.0
49.79 2245.0
49.835 2231.0
49.88 2192.0
49.925 2152.0
49.97 2361.0
50.015 2463.0
50.06 2425.0
50.105 2555.0
50.15 2571.0
50.195 2527.0
50.24 2405.0
50.285 2356.0
50.33 2261.0
50.375 2284.0
50.42 2272.0
50.465 2230.0
50.51 2299.0
50.555 2264.0
50.6 2372.0
50.645 2363.0
50.69 2330.0
50.735 2338.0
50.78 2308.0
50.825 2251.0
50.87 2291.0
50.915 2378.0
50.96 2357.0
51.005 2351.0
51.05 2352.0
51.095 2277.0
51.14 2323.0
51.185 2311.0
51.23 2305.0
51.275 2419.0
51.32 2319.0
51.365 2266.0
51.41 2373.0
51.455 2287.0
51.5 2271.0
51.545 2418.0
51.59 2394.0
51.635 2410.0
51.68 2372.0
51.725 2329.0
51.77 2238.0
51.815 2250.0
51.86 2234.0
51.905 2174.0
51.95 2184.0
51.995 2191.0
52.04 2107.0
52.085 2216.0
52.13 2113.0
52.175 2138.0
52.22 2106.0
52.265 2125.0
52.31 2134.0
52.355 2191.0
52.4 2173.0
52.445 2215.0
52.49 2229.0
52.535 2268.0
52.58 2180.0
52.625 2212.0
52.67 2271.0
52.715 2254.0
52.76 2252.0
52.805 2325.0
52.85 2266.0
52.895 2259.0
52.94 2329.0
52.985 2314.0
53.03 2350.0
53.075 2306.0
53.12 2250.0
53.165 2298.0
53.21 2254.0
53.255 2281.0
53.3 2259.0
53.345 2127.0
53.39 2277.0
53.435 2121.0
53.48 2242.0
53.525 2175.0
53.57 2136.0
53.615 2144.0
53.66 2116.0
53.705 2211.0
53.75 2123.0
53.795 2161.0
53.84 2104.0
53.885 2165.0
53.93 2216.0
53.975 2201.0
54.02 2169.0
54.065 2192.0
54.11 2197.0
54.155 2266.0
54.2 2137.0
54.245 2190.0
54.29 2227.0
54.335 2315.0
54.38 2164.0
54.425 2121.0
54.47 2065.0
54.515 2114.0
54.56 2034.0
54.605 2081.0
54.65 2110.0
54.695 2152.0
54.74 2106.0
54.785 2024.0
54.83 2041.0
54.875 2020.0
54.92 1941.0
54.965 2018.0
55.01 2037.0
55.055 1998.0
55.1 1999.0
55.145 2032.0
55.19 1979.0
55.235 2074.0
55.28 1938.0
55.325 2060.0
55.37 2011.0
55.415 2042.0
55.46 2053.0
55.505 2032.0
55.55 1950.0
55.595 1952.0
55.64 1980.0
55.685 1994.0
55.73 1986.0
55.775 1998.0
55.82 2054.0
55.865 1978.0
55.91 1990.0
55.955 2020.0
56.0 1962.0
56.045 2038.0
56.09 2027.0
56.135 1977.0
56.18 2066.0
56.225 1974.0
56.27 1997.0
56.315 1994.0
56.36 2016.0
56.405 2063.0
56.45 2004.0
56.495 1979.0
56.54 1984.0
56.585 2023.0
56.63 1982.0
56.675 2060.0
56.72 2020.0
56.765 2113.0
56.81 2103.0
56.855 2085.0
56.9 2085.0
56.945 2149.0
56.99 2196.0
57.035 2214.0
57.08 2199.0
57.125 2184.0
57.17 2276.0
57.215 2321.0
57.26 2309.0
57.305 2382.0
57.35 2358.0
57.395 2380.0
57.44 2372.0
57.485 2362.0
57.53 2359.0
57.575 2347.0
57.62 2328.0
57.665 2390.0
57.71 2275.0
57.755 2303.0
57.8 2319.0
57.845 2252.0
57.89 2177.0
57.935 2227.0
57.98 2185.0
58.025 2216.0
58.07 2183.0
58.115 2112.0
58.16 2272.0
58.205 2184.0
58.25 2245.0
58.295 2239.0
58.34 2180.0
58.385 2197.0
58.43 2216.0
58.475 2180.0
58.52 2145.0
58.565 2044.0
58.61 2116.0
58.655 2101.0
58.7 2091.0
58.745 2012.0
58.79 1971.0
58.835 2014.0
58.88 1935.0
58.925 2007.0
58.97 1988.0
59.015 1966.0
59.06 2019.0
59.105 2006.0
59.15 2029.0
59.195 1968.0
59.24 2008.0
59.285 1961.0
59.33 1984.0
59.375 2015.0
59.42 1993.0
59.465 1943.0
59.51 2008.0
59.555 1950.0
59.6 1967.0
59.645 1897.0
59.69 1928.0
59.735 1961.0
59.78 1932.0
59.825 1957.0
59.87 1965.0
59.915 1920.0
59.96 1927.0
60.005 1861.0
60.05 1848.0
60.095 1897.0
60.14 1829.0
60.185 1919.0
60.23 1915.0
60.275 1918.0
60.32 1910.0
60.365 1903.0
60.41 1960.0
60.455 2007.0
60.5 1964.0
60.545 1968.0
60.59 2037.0
60.635 1897.0
60.68 1932.0
60.725 1862.0
60.77 1892.0
60.815 1940.0
60.86 1867.0
60.905 1917.0
60.95 1934.0
60.995 1965.0
61.04 1899.0
61.085 1959.0
61.13 1920.0
61.175 1936.0
61.22 1905.0
61.265 1941.0
61.31 1885.0
61.355 1815.0
61.4 1912.0
61.445 1813.0
61.49 1877.0
61.535 1779.0
61.58 1857.0
61.625 1778.0
61.67 1801.0
61.715 1861.0
61.76 1773.0
61.805 1807.0
61.85 1770.0
61.895 1758.0
61.94 1809.0
61.985 1707.0