File: ISoD/xrd_data/HSC196_NM_range_8.xy
2.00000 2.000
2.04500 4.000
2.09000 2.000
2.13500 4.000
2.18000 4.000
2.22500 5.000
2.27000 5.000
2.31500 4.000
2.36000 3.000
2.40500 10.000
2.45000 5.000
2.49500 2.000
2.54000 4.000
2.58500 2.000
2.63000 4.000
2.67500 4.000
2.72000 15.000
2.76500 34.000
2.81000 73.000
2.85500 147.000
2.90000 231.000
2.94500 262.000
2.99000 254.000
3.03500 259.000
3.08000 254.000
3.12500 263.000
3.17000 254.000
3.21500 278.000
3.26000 276.000
3.30500 279.000
3.35000 271.000
3.39500 279.000
3.44000 299.000
3.48500 285.000
3.53000 297.000
3.57500 299.000
3.62000 334.000
3.66500 313.000
3.71000 329.000
3.75500 296.000
3.80000 301.000
3.84500 290.000
3.89000 308.000
3.93500 317.000
3.98000 371.000
4.02500 335.000
4.07000 367.000
4.11500 300.000
4.16000 337.000
4.20500 346.000
4.25000 343.000
4.29500 342.000
4.34000 350.000
4.38500 359.000
4.43000 365.000
4.47500 342.000
4.52000 358.000
4.56500 359.000
4.61000 366.000
4.65500 352.000
4.70000 356.000
4.74500 374.000
4.79000 370.000
4.83500 380.000
4.88000 381.000
4.92500 366.000
4.97000 382.000
5.01500 393.000
5.06000 358.000
5.10500 373.000
5.15000 412.000
5.19500 393.000
5.24000 394.000
5.28500 387.000
5.33000 367.000
5.37500 396.000
5.42000 424.000
5.46500 395.000
5.51000 422.000
5.55500 398.000
5.60000 415.000
5.64500 402.000
5.69000 402.000
5.73500 398.000
5.78000 419.000
5.82500 413.000
5.87000 407.000
5.91500 422.000
5.96000 435.000
6.00500 423.000
6.05000 459.000
6.09500 433.000
6.14000 426.000
6.18500 402.000
6.23000 448.000
6.27500 447.000
6.32000 458.000
6.36500 419.000
6.41000 425.000
6.45500 464.000
6.50000 445.000
6.54500 459.000
6.59000 448.000
6.63500 413.000
6.68000 484.000
6.72500 487.000
6.77000 459.000
6.81500 464.000
6.86000 456.000
6.90500 439.000
6.95000 425.000
6.99500 467.000
7.04000 474.000
7.08500 437.000
7.13000 451.000
7.17500 474.000
7.22000 476.000
7.26500 469.000
7.31000 467.000
7.35500 486.000
7.40000 484.000
7.44500 494.000
7.49000 497.000
7.53500 512.000
7.58000 504.000
7.62500 590.000
7.67000 585.000
7.71500 643.000
7.76000 785.000
7.80500 868.000
7.85000 1053.000
7.89500 1327.000
7.94000 1770.000
7.98500 1758.000
8.03000 1037.000
8.07500 840.000
8.12000 764.000
8.16500 635.000
8.21000 603.000
8.25500 621.000
8.30000 586.000
8.34500 587.000
8.39000 578.000
8.43500 550.000
8.48000 537.000
8.52500 544.000
8.57000 539.000
8.61500 567.000
8.66000 538.000
8.70500 534.000
8.75000 515.000
8.79500 550.000
8.84000 555.000
8.88500 525.000
8.93000 547.000
8.97500 551.000
9.02000 524.000
9.06500 533.000
9.11000 565.000
9.15500 527.000
9.20000 507.000
9.24500 540.000
9.29000 544.000
9.33500 553.000
9.38000 574.000
9.42500 553.000
9.47000 581.000
9.51500 577.000
9.56000 543.000
9.60500 576.000
9.65000 560.000
9.69500 571.000
9.74000 627.000
9.78500 597.000
9.83000 650.000
9.87500 675.000
9.92000 727.000
9.96500 813.000
10.01000 912.000
10.05500 966.000
10.10000 988.000
10.14500 923.000
10.19000 775.000
10.23500 718.000
10.28000 661.000
10.32500 622.000
10.37000 590.000
10.41500 582.000
10.46000 590.000
10.50500 574.000
10.55000 506.000
10.59500 543.000
10.64000 512.000
10.68500 514.000
10.73000 530.000
10.77500 518.000
10.82000 502.000
10.86500 512.000
10.91000 501.000
10.95500 522.000
11.00000 490.000
11.04500 503.000
11.09000 502.000
11.13500 520.000
11.18000 516.000
11.22500 524.000
11.27000 512.000
11.31500 520.000
11.36000 532.000
11.40500 510.000
11.45000 511.000
11.49500 528.000
11.54000 508.000
11.58500 506.000
11.63000 511.000
11.67500 536.000
11.72000 477.000
11.76500 505.000
11.81000 503.000
11.85500 467.000
11.90000 533.000
11.94500 493.000
11.99000 503.000
12.03500 504.000
12.08000 508.000
12.12500 487.000
12.17000 504.000
12.21500 493.000
12.26000 504.000
12.30500 511.000
12.35000 485.000
12.39500 491.000
12.44000 520.000
12.48500 512.000
12.53000 491.000
12.57500 489.000
12.62000 510.000
12.66500 496.000
12.71000 487.000
12.75500 520.000
12.80000 509.000
12.84500 499.000
12.89000 507.000
12.93500 461.000
12.98000 501.000
13.02500 466.000
13.07000 495.000
13.11500 466.000
13.16000 473.000
13.20500 511.000
13.25000 504.000
13.29500 499.000
13.34000 484.000
13.38500 498.000
13.43000 470.000
13.47500 510.000
13.52000 490.000
13.56500 509.000
13.61000 474.000
13.65500 479.000
13.70000 498.000
13.74500 508.000
13.79000 518.000
13.83500 486.000
13.88000 499.000
13.92500 500.000
13.97000 499.000
14.01500 487.000
14.06000 516.000
14.10500 492.000
14.15000 520.000
14.19500 521.000
14.24000 520.000
14.28500 495.000
14.33000 482.000
14.37500 460.000
14.42000 471.000
14.46500 523.000
14.51000 519.000
14.55500 520.000
14.60000 491.000
14.64500 482.000
14.69000 480.000
14.73500 474.000
14.78000 503.000
14.82500 539.000
14.87000 510.000
14.91500 569.000
14.96000 566.000
15.00500 602.000
15.05000 591.000
15.09500 588.000
15.14000 614.000
15.18500 605.000
15.23000 570.000
15.27500 588.000
15.32000 567.000
15.36500 508.000
15.41000 517.000
15.45500 483.000
15.50000 517.000
15.54500 509.000
15.59000 529.000
15.63500 516.000
15.68000 482.000
15.72500 464.000
15.77000 494.000
15.81500 465.000
15.86000 472.000
15.90500 491.000
15.95000 494.000
15.99500 511.000
16.04000 506.000
16.08500 504.000
16.13000 501.000
16.17500 483.000
16.22000 469.000
16.26500 511.000
16.31000 521.000
16.35500 459.000
16.40000 472.000
16.44500 462.000
16.49000 456.000
16.53500 481.000
16.58000 498.000
16.62500 485.000
16.67000 497.000
16.71500 463.000
16.76000 509.000
16.80500 485.000
16.85000 473.000
16.89500 489.000
16.94000 489.000
16.98500 505.000
17.03000 511.000
17.07500 482.000
17.12000 494.000
17.16500 514.000
17.21000 508.000
17.25500 517.000
17.30000 484.000
17.34500 490.000
17.39000 484.000
17.43500 490.000
17.48000 493.000
17.52500 492.000
17.57000 472.000
17.61500 488.000
17.66000 498.000
17.70500 475.000
17.75000 504.000
17.79500 515.000
17.84000 500.000
17.88500 488.000
17.93000 519.000
17.97500 535.000
18.02000 494.000
18.06500 493.000
18.11000 541.000
18.15500 490.000
18.20000 511.000
18.24500 511.000
18.29000 500.000
18.33500 536.000
18.38000 553.000
18.42500 577.000
18.47000 587.000
18.51500 622.000
18.56000 648.000
18.60500 670.000
18.65000 692.000
18.69500 716.000
18.74000 634.000
18.78500 611.000
18.83000 584.000
18.87500 553.000
18.92000 552.000
18.96500 536.000
19.01000 556.000
19.05500 488.000
19.10000 527.000
19.14500 528.000
19.19000 512.000
19.23500 530.000
19.28000 507.000
19.32500 508.000
19.37000 526.000
19.41500 494.000
19.46000 544.000
19.50500 514.000
19.55000 509.000
19.59500 508.000
19.64000 489.000
19.68500 515.000
19.73000 502.000
19.77500 503.000
19.82000 507.000
19.86500 540.000
19.91000 545.000
19.95500 511.000
20.00000 538.000
20.04500 560.000
20.09000 511.000
20.13500 528.000
20.18000 532.000
20.22500 512.000
20.27000 514.000
20.31500 560.000
20.36000 535.000
20.40500 554.000
20.45000 536.000
20.49500 544.000
20.54000 553.000
20.58500 538.000
20.63000 565.000
20.67500 552.000
20.72000 497.000
20.76500 512.000
20.81000 572.000
20.85500 547.000
20.90000 546.000
20.94500 551.000
20.99000 560.000
21.03500 559.000
21.08000 563.000
21.12500 569.000
21.17000 551.000
21.21500 578.000
21.26000 594.000
21.30500 579.000
21.35000 595.000
21.39500 605.000
21.44000 578.000
21.48500 561.000
21.53000 594.000
21.57500 574.000
21.62000 581.000
21.66500 606.000
21.71000 598.000
21.75500 616.000
21.80000 636.000
21.84500 662.000
21.89000 647.000
21.93500 687.000
21.98000 700.000
22.02500 681.000
22.07000 766.000
22.11500 724.000
22.16000 698.000
22.20500 680.000
22.25000 676.000
22.29500 672.000
22.34000 663.000
22.38500 624.000
22.43000 658.000
22.47500 672.000
22.52000 631.000
22.56500 681.000
22.61000 672.000
22.65500 674.000
22.70000 680.000
22.74500 754.000
22.79000 778.000
22.83500 818.000
22.88000 848.000
22.92500 867.000
22.97000 936.000
23.01500 887.000
23.06000 852.000
23.10500 811.000
23.15000 793.000
23.19500 751.000
23.24000 719.000
23.28500 705.000
23.33000 715.000
23.37500 701.000
23.42000 683.000
23.46500 639.000
23.51000 652.000
23.55500 682.000
23.60000 670.000
23.64500 709.000
23.69000 668.000
23.73500 662.000
23.78000 673.000
23.82500 664.000
23.87000 663.000
23.91500 659.000
23.96000 658.000
24.00500 658.000
24.05000 716.000
24.09500 694.000
24.14000 696.000
24.18500 671.000
24.23000 695.000
24.27500 749.000
24.32000 702.000
24.36500 756.000
24.41000 749.000
24.45500 749.000
24.50000 781.000
24.54500 751.000
24.59000 798.000
24.63500 748.000
24.68000 793.000
24.72500 787.000
24.77000 805.000
24.81500 773.000
24.86000 759.000
24.90500 767.000
24.95000 745.000
24.99500 780.000
25.04000 752.000
25.08500 750.000
25.13000 744.000
25.17500 747.000
25.22000 775.000
25.26500 758.000
25.31000 846.000
25.35500 811.000
25.40000 813.000
25.44500 847.000
25.49000 875.000
25.53500 859.000
25.58000 848.000
25.62500 936.000
25.67000 889.000
25.71500 917.000
25.76000 879.000
25.80500 910.000
25.85000 847.000
25.89500 829.000
25.94000 820.000
25.98500 884.000
26.03000 804.000
26.07500 842.000
26.12000 805.000
26.16500 807.000
26.21000 841.000
26.25500 849.000
26.30000 865.000
26.34500 861.000
26.39000 877.000
26.43500 898.000
26.48000 843.000
26.52500 888.000
26.57000 864.000
26.61500 889.000
26.66000 859.000
26.70500 852.000
26.75000 914.000
26.79500 911.000
26.84000 928.000
26.88500 912.000
26.93000 948.000
26.97500 973.000
27.02000 971.000
27.06500 965.000
27.11000 1026.000
27.15500 1052.000
27.20000 1016.000
27.24500 1076.000
27.29000 1152.000
27.33500 1159.000
27.38000 1293.000
27.42500 1323.000
27.47000 1444.000
27.51500 1665.000
27.56000 1930.000
27.60500 2430.000
27.65000 2902.000
27.69500 3564.000
27.74000 3831.000
27.78500 3728.000
27.83000 3367.000
27.87500 2961.000
27.92000 2873.000
27.96500 2711.000
28.01000 2619.000
28.05500 2441.000
28.10000 2259.000
28.14500 2017.000
28.19000 1917.000
28.23500 1789.000
28.28000 1736.000
28.32500 1587.000
28.37000 1432.000
28.41500 1359.000
28.46000 1304.000
28.50500 1189.000
28.55000 1199.000
28.59500 1100.000
28.64000 1039.000
28.68500 1064.000
28.73000 1020.000
28.77500 1003.000
28.82000 996.000
28.86500 950.000
28.91000 908.000
28.95500 982.000
29.00000 952.000
29.04500 952.000
29.09000 974.000
29.13500 994.000
29.18000 986.000
29.22500 926.000
29.27000 854.000
29.31500 827.000
29.36000 805.000
29.40500 798.000
29.45000 767.000
29.49500 784.000
29.54000 737.000
29.58500 802.000
29.63000 761.000
29.67500 822.000
29.72000 801.000
29.76500 762.000
29.81000 771.000
29.85500 765.000
29.90000 795.000
29.94500 750.000
29.99000 738.000
30.03500 758.000
30.08000 736.000
30.12500 743.000
30.17000 799.000
30.21500 806.000
30.26000 767.000
30.30500 805.000
30.35000 806.000
30.39500 801.000
30.44000 844.000
30.48500 810.000
30.53000 789.000
30.57500 789.000
30.62000 803.000
30.66500 778.000
30.71000 780.000
30.75500 740.000
30.80000 722.000
30.84500 737.000
30.89000 703.000
30.93500 680.000
30.98000 660.000
31.02500 691.000
31.07000 615.000
31.11500 647.000
31.16000 654.000
31.20500 639.000
31.25000 626.000
31.29500 610.000
31.34000 665.000
31.38500 669.000
31.43000 634.000
31.47500 679.000
31.52000 673.000
31.56500 635.000
31.61000 663.000
31.65500 625.000
31.70000 604.000
31.74500 636.000
31.79000 632.000
31.83500 651.000
31.88000 650.000
31.92500 659.000
31.97000 626.000
32.01500 655.000
32.06000 619.000
32.10500 606.000
32.15000 655.000
32.19500 651.000
32.24000 701.000
32.28500 767.000
32.33000 776.000
32.37500 813.000
32.42000 803.000
32.46500 711.000
32.51000 651.000
32.55500 545.000
32.60000 612.000
32.64500 530.000
32.69000 541.000
32.73500 548.000
32.78000 493.000
32.82500 522.000
32.87000 534.000
32.91500 495.000
32.96000 496.000
33.00500 484.000
33.05000 455.000
33.09500 524.000
33.14000 452.000
33.18500 474.000
33.23000 456.000
33.27500 467.000
33.32000 463.000
33.36500 438.000
33.41000 452.000
33.45500 482.000
33.50000 467.000
33.54500 481.000
33.59000 447.000
33.63500 483.000
33.68000 480.000
33.72500 494.000
33.77000 471.000
33.81500 446.000
33.86000 470.000
33.90500 469.000
33.95000 476.000
33.99500 478.000
34.04000 431.000
34.08500 437.000
34.13000 476.000
34.17500 478.000
34.22000 420.000
34.26500 451.000
34.31000 438.000
34.35500 466.000
34.40000 431.000
34.44500 453.000
34.49000 463.000
34.53500 454.000
34.58000 448.000
34.62500 454.000
34.67000 463.000
34.71500 448.000
34.76000 460.000
34.80500 428.000
34.85000 481.000
34.89500 464.000
34.94000 480.000
34.98500 485.000
35.03000 479.000
35.07500 482.000
35.12000 518.000
35.16500 504.000
35.21000 516.000
35.25500 534.000
35.30000 604.000
35.34500 577.000
35.39000 742.000
35.43500 890.000
35.48000 987.000
35.52500 907.000
35.57000 728.000
35.61500 623.000
35.66000 592.000
35.70500 516.000
35.75000 514.000
35.79500 527.000
35.84000 489.000
35.88500 469.000
35.93000 509.000
35.97500 444.000
36.02000 488.000
36.06500 510.000
36.11000 489.000
36.15500 555.000
36.20000 529.000
36.24500 535.000
36.29000 527.000
36.33500 536.000
36.38000 546.000
36.42500 551.000
36.47000 553.000
36.51500 588.000
36.56000 560.000
36.60500 528.000
36.65000 512.000
36.69500 548.000
36.74000 497.000
36.78500 466.000
36.83000 452.000
36.87500 451.000
36.92000 472.000
36.96500 469.000
37.01000 463.000
37.05500 480.000
37.10000 488.000
37.14500 498.000
37.19000 473.000
37.23500 533.000
37.28000 506.000
37.32500 527.000
37.37000 563.000
37.41500 535.000
37.46000 489.000
37.50500 576.000
37.55000 521.000
37.59500 520.000
37.64000 513.000
37.68500 513.000
37.73000 529.000
37.77500 499.000
37.82000 535.000
37.86500 499.000
37.91000 485.000
37.95500 458.000
38.00000 452.000
38.04500 472.000
38.09000 481.000
38.13500 450.000
38.18000 447.000
38.22500 468.000
38.27000 462.000
38.31500 460.000
38.36000 430.000
38.40500 432.000
38.45000 476.000
38.49500 494.000
38.54000 476.000
38.58500 513.000
38.63000 467.000
38.67500 505.000
38.72000 463.000
38.76500 477.000
38.81000 462.000
38.85500 469.000
38.90000 455.000
38.94500 435.000
38.99000 490.000
39.03500 388.000
39.08000 419.000
39.12500 426.000
39.17000 416.000
39.21500 410.000
39.26000 368.000
39.30500 386.000
39.35000 396.000
39.39500 393.000
39.44000 374.000
39.48500 398.000
39.53000 374.000
39.57500 413.000
39.62000 399.000
39.66500 420.000
39.71000 407.000
39.75500 400.000
39.80000 442.000
39.84500 412.000
39.89000 439.000
39.93500 481.000
39.98000 436.000
40.02500 418.000
40.07000 417.000
40.11500 441.000
40.16000 429.000
40.20500 460.000
40.25000 433.000
40.29500 442.000
40.34000 448.000
40.38500 416.000
40.43000 433.000
40.47500 434.000
40.52000 400.000
40.56500 434.000
40.61000 409.000
40.65500 404.000
40.70000 419.000
40.74500 400.000
40.79000 404.000
40.83500 414.000
40.88000 366.000
40.92500 395.000
40.97000 390.000
41.01500 364.000
41.06000 379.000
41.10500 396.000
41.15000 399.000
41.19500 357.000
41.24000 355.000
41.28500 382.000
41.33000 364.000
41.37500 356.000
41.42000 356.000
41.46500 344.000
41.51000 338.000
41.55500 359.000
41.60000 386.000
41.64500 340.000
41.69000 389.000
41.73500 353.000
41.78000 394.000
41.82500 373.000
41.87000 345.000
41.91500 360.000
41.96000 379.000
42.00500 333.000
42.05000 353.000
42.09500 343.000
42.14000 355.000
42.18500 362.000
42.23000 363.000
42.27500 356.000
42.32000 360.000
42.36500 367.000
42.41000 394.000
42.45500 349.000
42.50000 369.000
42.54500 392.000
42.59000 380.000
42.63500 393.000
42.68000 400.000
42.72500 382.000
42.77000 373.000
42.81500 356.000
42.86000 385.000
42.90500 388.000
42.95000 393.000
42.99500 445.000
43.04000 446.000
43.08500 454.000
43.13000 515.000
43.17500 559.000
43.22000 579.000
43.26500 621.000
43.31000 630.000
43.35500 607.000
43.40000 562.000
43.44500 528.000
43.49000 468.000
43.53500 475.000
43.58000 434.000
43.62500 451.000
43.67000 454.000
43.71500 411.000
43.76000 410.000
43.80500 389.000
43.85000 404.000
43.89500 408.000
43.94000 386.000
43.98500 387.000
44.03000 404.000
44.07500 385.000
44.12000 378.000
44.16500 432.000
44.21000 433.000
44.25500 389.000
44.30000 467.000
44.34500 488.000
44.39000 503.000
44.43500 441.000
44.48000 460.000
44.52500 441.000
44.57000 425.000
44.61500 418.000
44.66000 414.000
44.70500 429.000
44.75000 384.000
44.79500 390.000
44.84000 403.000
44.88500 412.000
44.93000 412.000
44.97500 409.000
45.02000 393.000
45.06500 411.000
45.11000 407.000
45.15500 420.000
45.20000 388.000
45.24500 404.000
45.29000 417.000
45.33500 393.000
45.38000 388.000
45.42500 373.000
45.47000 369.000
45.51500 393.000
45.56000 377.000
45.60500 365.000
45.65000 401.000
45.69500 398.000
45.74000 385.000
45.78500 397.000
45.83000 410.000
45.87500 387.000
45.92000 367.000
45.96500 372.000
46.01000 366.000
46.05500 356.000
46.10000 405.000
46.14500 410.000
46.19000 368.000
46.23500 348.000
46.28000 371.000
46.32500 419.000
46.37000 376.000
46.41500 359.000
46.46000 377.000
46.50500 400.000
46.55000 357.000
46.59500 369.000
46.64000 373.000
46.68500 350.000
46.73000 379.000
46.77500 323.000
46.82000 333.000
46.86500 338.000
46.91000 328.000
46.95500 332.000
47.00000 342.000
47.04500 351.000
47.09000 336.000
47.13500 345.000
47.18000 333.000
47.22500 309.000
47.27000 312.000
47.31500 315.000
47.36000 319.000
47.40500 316.000
47.45000 328.000
47.49500 291.000
47.54000 320.000
47.58500 294.000
47.63000 303.000
47.67500 316.000
47.72000 329.000
47.76500 303.000
47.81000 299.000
47.85500 290.000
47.90000 292.000
47.94500 309.000
47.99000 317.000
48.03500 309.000
48.08000 284.000
48.12500 325.000
48.17000 250.000
48.21500 296.000
48.26000 291.000
48.30500 285.000
48.35000 294.000
48.39500 281.000
48.44000 267.000
48.48500 300.000
48.53000 277.000
48.57500 273.000
48.62000 284.000
48.66500 284.000
48.71000 269.000
48.75500 258.000
48.80000 281.000
48.84500 275.000
48.89000 256.000
48.93500 274.000
48.98000 266.000
49.02500 268.000
49.07000 292.000
49.11500 278.000
49.16000 262.000
49.20500 285.000
49.25000 296.000
49.29500 275.000
49.34000 273.000
49.38500 297.000
49.43000 303.000
49.47500 287.000
49.52000 270.000
49.56500 283.000
49.61000 279.000
49.65500 266.000
49.70000 270.000
49.74500 248.000
49.79000 307.000
49.83500 271.000
49.88000 268.000
49.92500 259.000
49.97000 273.000
50.01500 275.000
50.06000 293.000
50.10500 328.000
50.15000 341.000
50.19500 317.000
50.24000 305.000
50.28500 269.000
50.33000 306.000
50.37500 294.000
50.42000 283.000
50.46500 276.000
50.51000 286.000
50.55500 295.000
50.60000 286.000
50.64500 293.000
50.69000 285.000
50.73500 286.000
50.78000 299.000
50.82500 275.000
50.87000 300.000
50.91500 297.000
50.96000 295.000
51.00500 293.000
51.05000 299.000
51.09500 272.000
51.14000 292.000
51.18500 319.000
51.23000 296.000
51.27500 304.000
51.32000 284.000
51.36500 276.000
51.41000 324.000
51.45500 301.000
51.50000 285.000
51.54500 295.000
51.59000 312.000
51.63500 301.000
51.68000 300.000
51.72500 269.000
51.77000 296.000
51.81500 278.000
51.86000 306.000
51.90500 276.000
51.95000 264.000
51.99500 274.000
52.04000 269.000
52.08500 298.000
52.13000 280.000
52.17500 271.000
52.22000 256.000
52.26500 277.000
52.31000 258.000
52.35500 267.000
52.40000 282.000
52.44500 299.000
52.49000 275.000
52.53500 279.000
52.58000 288.000
52.62500 257.000
52.67000 277.000
52.71500 278.000
52.76000 293.000
52.80500 273.000
52.85000 290.000
52.89500 266.000
52.94000 319.000
52.98500 306.000
53.03000 296.000
53.07500 300.000
53.12000 256.000
53.16500 272.000
53.21000 289.000
53.25500 296.000
53.30000 303.000
53.34500 262.000
53.39000 290.000
53.43500 258.000
53.48000 286.000
53.52500 277.000
53.57000 261.000
53.61500 255.000
53.66000 267.000
53.70500 281.000
53.75000 303.000
53.79500 321.000
53.84000 253.000
53.88500 251.000
53.93000 272.000
53.97500 260.000
54.02000 294.000
54.06500 283.000
54.11000 293.000
54.15500 296.000
54.20000 268.000
54.24500 268.000
54.29000 286.000
54.33500 281.000
54.38000 289.000
54.42500 282.000
54.47000 269.000
54.51500 278.000
54.56000 258.000
54.60500 265.000
54.65000 261.000
54.69500 249.000
54.74000 264.000
54.78500 272.000
54.83000 243.000
54.87500 255.000
54.92000 221.000
54.96500 242.000
55.01000 255.000
55.05500 245.000
55.10000 245.000
55.14500 250.000
55.19000 256.000
55.23500 262.000
55.28000 241.000
55.32500 243.000
55.37000 241.000
55.41500 253.000
55.46000 271.000
55.50500 274.000
55.55000 258.000
55.59500 259.000
55.64000 232.000
55.68500 258.000
55.73000 234.000
55.77500 229.000
55.82000 253.000
55.86500 250.000
55.91000 238.000
55.95500 279.000
56.00000 254.000
56.04500 291.000
56.09000 239.000
56.13500 232.000
56.18000 248.000
56.22500 241.000
56.27000 232.000
56.31500 251.000
56.36000 264.000
56.40500 264.000
56.45000 267.000
56.49500 250.000
56.54000 249.000
56.58500 250.000
56.63000 243.000
56.67500 253.000
56.72000 239.000
56.76500 262.000
56.81000 257.000
56.85500 264.000
56.90000 258.000
56.94500 254.000
56.99000 279.000
57.03500 295.000
57.08000 277.000
57.12500 293.000
57.17000 298.000
57.21500 287.000
57.26000 287.000
57.30500 274.000
57.35000 279.000
57.39500 294.000
57.44000 320.000
57.48500 301.000
57.53000 288.000
57.57500 299.000
57.62000 264.000
57.66500 305.000
57.71000 261.000
57.75500 272.000
57.80000 314.000
57.84500 275.000
57.89000 257.000
57.93500 289.000
57.98000 270.000
58.02500 289.000
58.07000 272.000
58.11500 262.000
58.16000 291.000
58.20500 268.000
58.25000 277.000
58.29500 286.000
58.34000 300.000
58.38500 264.000
58.43000 285.000
58.47500 259.000
58.52000 253.000
58.56500 240.000
58.61000 260.000
58.65500 262.000
58.70000 268.000
58.74500 251.000
58.79000 258.000
58.83500 257.000
58.88000 236.000
58.92500 268.000
58.97000 240.000
59.01500 250.000
59.06000 234.000
59.10500 261.000
59.15000 265.000
59.19500 250.000
59.24000 253.000
59.28500 248.000
59.33000 250.000
59.37500 239.000
59.42000 263.000
59.46500 250.000
59.51000 251.000
59.55500 247.000
59.60000 256.000
59.64500 237.000
59.69000 229.000
59.73500 256.000
59.78000 255.000
59.82500 249.000
59.87000 244.000
59.91500 252.000
59.96000 223.000
60.00500 220.000
60.05000 226.000
60.09500 230.000
60.14000 242.000
60.18500 245.000
60.23000 216.000
60.27500 225.000
60.32000 235.000
60.36500 243.000
60.41000 263.000
60.45500 254.000
60.50000 238.000
60.54500 249.000
60.59000 235.000
60.63500 263.000
60.68000 242.000
60.72500 217.000
60.77000 253.000
60.81500 233.000
60.86000 238.000
60.90500 236.000
60.95000 244.000
60.99500 240.000
61.04000 245.000
61.08500 244.000
61.13000 254.000
61.17500 233.000
61.22000 227.000
61.26500 233.000
61.31000 240.000
61.35500 215.000
61.40000 226.000
61.44500 247.000
61.49000 222.000
61.53500 222.000
61.58000 247.000
61.62500 224.000
61.67000 241.000
61.71500 220.000
61.76000 229.000
61.80500 252.000
61.85000 221.000
61.89500 219.000
61.94000 221.000
61.98500 209.000