File: ISoD/xrd_data/HSC196_NM_range_4.xy
2.00000 4.000
2.04500 5.000
2.09000 6.000
2.13500 3.000
2.18000 3.000
2.22500 3.000
2.27000 2.000
2.31500 3.000
2.36000 1.000
2.40500 5.000
2.45000 2.000
2.49500 7.000
2.54000 5.000
2.58500 7.000
2.63000 4.000
2.67500 4.000
2.72000 12.000
2.76500 38.000
2.81000 78.000
2.85500 147.000
2.90000 213.000
2.94500 223.000
2.99000 253.000
3.03500 246.000
3.08000 258.000
3.12500 286.000
3.17000 267.000
3.21500 292.000
3.26000 274.000
3.30500 250.000
3.35000 292.000
3.39500 262.000
3.44000 287.000
3.48500 299.000
3.53000 280.000
3.57500 289.000
3.62000 301.000
3.66500 295.000
3.71000 319.000
3.75500 288.000
3.80000 312.000
3.84500 319.000
3.89000 282.000
3.93500 317.000
3.98000 320.000
4.02500 322.000
4.07000 332.000
4.11500 321.000
4.16000 323.000
4.20500 325.000
4.25000 352.000
4.29500 317.000
4.34000 359.000
4.38500 346.000
4.43000 355.000
4.47500 321.000
4.52000 351.000
4.56500 344.000
4.61000 345.000
4.65500 330.000
4.70000 377.000
4.74500 360.000
4.79000 394.000
4.83500 369.000
4.88000 398.000
4.92500 366.000
4.97000 376.000
5.01500 384.000
5.06000 376.000
5.10500 375.000
5.15000 379.000
5.19500 372.000
5.24000 395.000
5.28500 373.000
5.33000 375.000
5.37500 408.000
5.42000 389.000
5.46500 397.000
5.51000 379.000
5.55500 404.000
5.60000 406.000
5.64500 401.000
5.69000 400.000
5.73500 403.000
5.78000 413.000
5.82500 420.000
5.87000 410.000
5.91500 436.000
5.96000 403.000
6.00500 405.000
6.05000 361.000
6.09500 410.000
6.14000 410.000
6.18500 415.000
6.23000 387.000
6.27500 429.000
6.32000 450.000
6.36500 408.000
6.41000 415.000
6.45500 427.000
6.50000 394.000
6.54500 439.000
6.59000 431.000
6.63500 432.000
6.68000 442.000
6.72500 414.000
6.77000 425.000
6.81500 444.000
6.86000 399.000
6.90500 419.000
6.95000 460.000
6.99500 464.000
7.04000 474.000
7.08500 467.000
7.13000 465.000
7.17500 448.000
7.22000 453.000
7.26500 458.000
7.31000 480.000
7.35500 487.000
7.40000 480.000
7.44500 464.000
7.49000 481.000
7.53500 492.000
7.58000 504.000
7.62500 532.000
7.67000 570.000
7.71500 642.000
7.76000 706.000
7.80500 825.000
7.85000 978.000
7.89500 1318.000
7.94000 1755.000
7.98500 1694.000
8.03000 1004.000
8.07500 794.000
8.12000 706.000
8.16500 662.000
8.21000 605.000
8.25500 567.000
8.30000 580.000
8.34500 565.000
8.39000 573.000
8.43500 548.000
8.48000 531.000
8.52500 535.000
8.57000 540.000
8.61500 542.000
8.66000 528.000
8.70500 519.000
8.75000 528.000
8.79500 522.000
8.84000 530.000
8.88500 533.000
8.93000 533.000
8.97500 584.000
9.02000 516.000
9.06500 518.000
9.11000 529.000
9.15500 526.000
9.20000 541.000
9.24500 530.000
9.29000 530.000
9.33500 529.000
9.38000 542.000
9.42500 512.000
9.47000 543.000
9.51500 507.000
9.56000 543.000
9.60500 559.000
9.65000 565.000
9.69500 568.000
9.74000 581.000
9.78500 646.000
9.83000 662.000
9.87500 688.000
9.92000 717.000
9.96500 744.000
10.01000 863.000
10.05500 963.000
10.10000 976.000
10.14500 954.000
10.19000 803.000
10.23500 740.000
10.28000 639.000
10.32500 615.000
10.37000 558.000
10.41500 557.000
10.46000 554.000
10.50500 493.000
10.55000 533.000
10.59500 534.000
10.64000 517.000
10.68500 522.000
10.73000 525.000
10.77500 502.000
10.82000 531.000
10.86500 496.000
10.91000 498.000
10.95500 496.000
11.00000 508.000
11.04500 522.000
11.09000 495.000
11.13500 502.000
11.18000 512.000
11.22500 516.000
11.27000 484.000
11.31500 512.000
11.36000 475.000
11.40500 498.000
11.45000 494.000
11.49500 505.000
11.54000 470.000
11.58500 503.000
11.63000 471.000
11.67500 484.000
11.72000 495.000
11.76500 505.000
11.81000 504.000
11.85500 485.000
11.90000 494.000
11.94500 500.000
11.99000 529.000
12.03500 492.000
12.08000 546.000
12.12500 492.000
12.17000 474.000
12.21500 500.000
12.26000 502.000
12.30500 501.000
12.35000 490.000
12.39500 504.000
12.44000 452.000
12.48500 475.000
12.53000 481.000
12.57500 504.000
12.62000 503.000
12.66500 447.000
12.71000 488.000
12.75500 480.000
12.80000 485.000
12.84500 475.000
12.89000 490.000
12.93500 502.000
12.98000 498.000
13.02500 505.000
13.07000 502.000
13.11500 483.000
13.16000 474.000
13.20500 474.000
13.25000 457.000
13.29500 503.000
13.34000 491.000
13.38500 457.000
13.43000 483.000
13.47500 493.000
13.52000 464.000
13.56500 473.000
13.61000 471.000
13.65500 498.000
13.70000 488.000
13.74500 471.000
13.79000 483.000
13.83500 495.000
13.88000 472.000
13.92500 477.000
13.97000 463.000
14.01500 475.000
14.06000 446.000
14.10500 485.000
14.15000 478.000
14.19500 489.000
14.24000 479.000
14.28500 465.000
14.33000 469.000
14.37500 495.000
14.42000 446.000
14.46500 442.000
14.51000 459.000
14.55500 463.000
14.60000 502.000
14.64500 457.000
14.69000 485.000
14.73500 508.000
14.78000 481.000
14.82500 498.000
14.87000 494.000
14.91500 518.000
14.96000 502.000
15.00500 572.000
15.05000 552.000
15.09500 588.000
15.14000 574.000
15.18500 610.000
15.23000 598.000
15.27500 556.000
15.32000 541.000
15.36500 498.000
15.41000 486.000
15.45500 497.000
15.50000 475.000
15.54500 460.000
15.59000 488.000
15.63500 507.000
15.68000 480.000
15.72500 511.000
15.77000 485.000
15.81500 484.000
15.86000 497.000
15.90500 479.000
15.95000 474.000
15.99500 507.000
16.04000 453.000
16.08500 473.000
16.13000 447.000
16.17500 469.000
16.22000 441.000
16.26500 470.000
16.31000 475.000
16.35500 525.000
16.40000 500.000
16.44500 467.000
16.49000 521.000
16.53500 462.000
16.58000 491.000
16.62500 490.000
16.67000 482.000
16.71500 436.000
16.76000 492.000
16.80500 468.000
16.85000 469.000
16.89500 465.000
16.94000 491.000
16.98500 484.000
17.03000 467.000
17.07500 482.000
17.12000 462.000
17.16500 465.000
17.21000 462.000
17.25500 495.000
17.30000 490.000
17.34500 467.000
17.39000 497.000
17.43500 488.000
17.48000 478.000
17.52500 494.000
17.57000 465.000
17.61500 494.000
17.66000 521.000
17.70500 498.000
17.75000 486.000
17.79500 493.000
17.84000 486.000
17.88500 524.000
17.93000 468.000
17.97500 479.000
18.02000 503.000
18.06500 474.000
18.11000 458.000
18.15500 512.000
18.20000 498.000
18.24500 517.000
18.29000 501.000
18.33500 519.000
18.38000 542.000
18.42500 507.000
18.47000 567.000
18.51500 599.000
18.56000 647.000
18.60500 681.000
18.65000 669.000
18.69500 653.000
18.74000 661.000
18.78500 611.000
18.83000 565.000
18.87500 519.000
18.92000 541.000
18.96500 520.000
19.01000 543.000
19.05500 488.000
19.10000 518.000
19.14500 511.000
19.19000 509.000
19.23500 498.000
19.28000 513.000
19.32500 495.000
19.37000 513.000
19.41500 495.000
19.46000 498.000
19.50500 501.000
19.55000 507.000
19.59500 531.000
19.64000 515.000
19.68500 528.000
19.73000 525.000
19.77500 511.000
19.82000 538.000
19.86500 498.000
19.91000 511.000
19.95500 500.000
20.00000 516.000
20.04500 519.000
20.09000 538.000
20.13500 518.000
20.18000 513.000
20.22500 543.000
20.27000 481.000
20.31500 532.000
20.36000 497.000
20.40500 542.000
20.45000 507.000
20.49500 556.000
20.54000 549.000
20.58500 526.000
20.63000 548.000
20.67500 547.000
20.72000 547.000
20.76500 511.000
20.81000 532.000
20.85500 550.000
20.90000 526.000
20.94500 537.000
20.99000 516.000
21.03500 537.000
21.08000 577.000
21.12500 548.000
21.17000 526.000
21.21500 549.000
21.26000 578.000
21.30500 511.000
21.35000 571.000
21.39500 595.000
21.44000 536.000
21.48500 579.000
21.53000 564.000
21.57500 579.000
21.62000 576.000
21.66500 610.000
21.71000 582.000
21.75500 577.000
21.80000 576.000
21.84500 650.000
21.89000 631.000
21.93500 663.000
21.98000 673.000
22.02500 718.000
22.07000 736.000
22.11500 719.000
22.16000 667.000
22.20500 670.000
22.25000 666.000
22.29500 637.000
22.34000 673.000
22.38500 660.000
22.43000 644.000
22.47500 641.000
22.52000 662.000
22.56500 658.000
22.61000 673.000
22.65500 681.000
22.70000 700.000
22.74500 737.000
22.79000 741.000
22.83500 822.000
22.88000 814.000
22.92500 866.000
22.97000 841.000
23.01500 894.000
23.06000 816.000
23.10500 788.000
23.15000 759.000
23.19500 715.000
23.24000 700.000
23.28500 675.000
23.33000 674.000
23.37500 689.000
23.42000 666.000
23.46500 668.000
23.51000 655.000
23.55500 656.000
23.60000 663.000
23.64500 680.000
23.69000 636.000
23.73500 672.000
23.78000 666.000
23.82500 654.000
23.87000 616.000
23.91500 649.000
23.96000 665.000
24.00500 661.000
24.05000 705.000
24.09500 660.000
24.14000 689.000
24.18500 675.000
24.23000 696.000
24.27500 729.000
24.32000 709.000
24.36500 705.000
24.41000 740.000
24.45500 711.000
24.50000 733.000
24.54500 771.000
24.59000 733.000
24.63500 777.000
24.68000 728.000
24.72500 799.000
24.77000 742.000
24.81500 738.000
24.86000 730.000
24.90500 758.000
24.95000 723.000
24.99500 749.000
25.04000 758.000
25.08500 768.000
25.13000 736.000
25.17500 712.000
25.22000 753.000
25.26500 768.000
25.31000 748.000
25.35500 764.000
25.40000 792.000
25.44500 803.000
25.49000 810.000
25.53500 853.000
25.58000 857.000
25.62500 896.000
25.67000 880.000
25.71500 861.000
25.76000 904.000
25.80500 883.000
25.85000 859.000
25.89500 847.000
25.94000 834.000
25.98500 810.000
26.03000 774.000
26.07500 849.000
26.12000 807.000
26.16500 828.000
26.21000 812.000
26.25500 830.000
26.30000 850.000
26.34500 830.000
26.39000 852.000
26.43500 862.000
26.48000 867.000
26.52500 830.000
26.57000 837.000
26.61500 831.000
26.66000 877.000
26.70500 870.000
26.75000 879.000
26.79500 891.000
26.84000 912.000
26.88500 877.000
26.93000 886.000
26.97500 890.000
27.02000 989.000
27.06500 941.000
27.11000 1032.000
27.15500 1020.000
27.20000 1053.000
27.24500 1085.000
27.29000 1080.000
27.33500 1172.000
27.38000 1233.000
27.42500 1318.000
27.47000 1419.000
27.51500 1725.000
27.56000 1956.000
27.60500 2350.000
27.65000 2924.000
27.69500 3477.000
27.74000 3634.000
27.78500 3590.000
27.83000 3206.000
27.87500 3003.000
27.92000 2815.000
27.96500 2630.000
28.01000 2588.000
28.05500 2324.000
28.10000 2188.000
28.14500 2029.000
28.19000 1867.000
28.23500 1675.000
28.28000 1619.000
28.32500 1539.000
28.37000 1429.000
28.41500 1396.000
28.46000 1287.000
28.50500 1152.000
28.55000 1126.000
28.59500 1150.000
28.64000 1017.000
28.68500 997.000
28.73000 983.000
28.77500 985.000
28.82000 964.000
28.86500 894.000
28.91000 912.000
28.95500 893.000
29.00000 898.000
29.04500 950.000
29.09000 941.000
29.13500 979.000
29.18000 978.000
29.22500 928.000
29.27000 839.000
29.31500 801.000
29.36000 783.000
29.40500 814.000
29.45000 750.000
29.49500 770.000
29.54000 750.000
29.58500 786.000
29.63000 761.000
29.67500 758.000
29.72000 747.000
29.76500 787.000
29.81000 714.000
29.85500 754.000
29.90000 748.000
29.94500 725.000
29.99000 764.000
30.03500 693.000
30.08000 717.000
30.12500 763.000
30.17000 795.000
30.21500 761.000
30.26000 792.000
30.30500 776.000
30.35000 763.000
30.39500 802.000
30.44000 781.000
30.48500 785.000
30.53000 840.000
30.57500 774.000
30.62000 740.000
30.66500 791.000
30.71000 773.000
30.75500 708.000
30.80000 735.000
30.84500 681.000
30.89000 688.000
30.93500 673.000
30.98000 633.000
31.02500 676.000
31.07000 651.000
31.11500 665.000
31.16000 621.000
31.20500 615.000
31.25000 643.000
31.29500 617.000
31.34000 651.000
31.38500 651.000
31.43000 636.000
31.47500 637.000
31.52000 638.000
31.56500 640.000
31.61000 612.000
31.65500 626.000
31.70000 604.000
31.74500 594.000
31.79000 646.000
31.83500 635.000
31.88000 625.000
31.92500 629.000
31.97000 610.000
32.01500 610.000
32.06000 615.000
32.10500 639.000
32.15000 596.000
32.19500 636.000
32.24000 708.000
32.28500 705.000
32.33000 790.000
32.37500 758.000
32.42000 806.000
32.46500 673.000
32.51000 634.000
32.55500 604.000
32.60000 522.000
32.64500 543.000
32.69000 550.000
32.73500 499.000
32.78000 538.000
32.82500 507.000
32.87000 485.000
32.91500 503.000
32.96000 484.000
33.00500 487.000
33.05000 449.000
33.09500 436.000
33.14000 479.000
33.18500 454.000
33.23000 461.000
33.27500 451.000
33.32000 465.000
33.36500 458.000
33.41000 436.000
33.45500 445.000
33.50000 420.000
33.54500 432.000
33.59000 454.000
33.63500 450.000
33.68000 424.000
33.72500 441.000
33.77000 445.000
33.81500 447.000
33.86000 489.000
33.90500 469.000
33.95000 434.000
33.99500 446.000
34.04000 461.000
34.08500 469.000
34.13000 439.000
34.17500 461.000
34.22000 445.000
34.26500 424.000
34.31000 449.000
34.35500 420.000
34.40000 447.000
34.44500 430.000
34.49000 426.000
34.53500 446.000
34.58000 459.000
34.62500 456.000
34.67000 422.000
34.71500 450.000
34.76000 437.000
34.80500 446.000
34.85000 448.000
34.89500 482.000
34.94000 417.000
34.98500 473.000
35.03000 449.000
35.07500 492.000
35.12000 480.000
35.16500 505.000
35.21000 504.000
35.25500 516.000
35.30000 565.000
35.34500 646.000
35.39000 710.000
35.43500 889.000
35.48000 971.000
35.52500 854.000
35.57000 689.000
35.61500 622.000
35.66000 570.000
35.70500 510.000
35.75000 494.000
35.79500 475.000
35.84000 472.000
35.88500 467.000
35.93000 484.000
35.97500 471.000
36.02000 453.000
36.06500 482.000
36.11000 509.000
36.15500 533.000
36.20000 528.000
36.24500 511.000
36.29000 559.000
36.33500 537.000
36.38000 562.000
36.42500 576.000
36.47000 547.000
36.51500 541.000
36.56000 541.000
36.60500 532.000
36.65000 543.000
36.69500 492.000
36.74000 495.000
36.78500 454.000
36.83000 474.000
36.87500 433.000
36.92000 460.000
36.96500 454.000
37.01000 478.000
37.05500 451.000
37.10000 478.000
37.14500 492.000
37.19000 453.000
37.23500 481.000
37.28000 513.000
37.32500 509.000
37.37000 496.000
37.41500 488.000
37.46000 536.000
37.50500 485.000
37.55000 493.000
37.59500 508.000
37.64000 471.000
37.68500 498.000
37.73000 503.000
37.77500 486.000
37.82000 504.000
37.86500 483.000
37.91000 487.000
37.95500 475.000
38.00000 472.000
38.04500 463.000
38.09000 469.000
38.13500 461.000
38.18000 460.000
38.22500 424.000
38.27000 451.000
38.31500 425.000
38.36000 472.000
38.40500 446.000
38.45000 425.000
38.49500 488.000
38.54000 483.000
38.58500 506.000
38.63000 468.000
38.67500 479.000
38.72000 448.000
38.76500 473.000
38.81000 439.000
38.85500 471.000
38.90000 465.000
38.94500 455.000
38.99000 385.000
39.03500 424.000
39.08000 410.000
39.12500 397.000
39.17000 374.000
39.21500 374.000
39.26000 369.000
39.30500 403.000
39.35000 413.000
39.39500 375.000
39.44000 357.000
39.48500 388.000
39.53000 383.000
39.57500 415.000
39.62000 404.000
39.66500 381.000
39.71000 378.000
39.75500 405.000
39.80000 408.000
39.84500 439.000
39.89000 403.000
39.93500 436.000
39.98000 422.000
40.02500 436.000
40.07000 435.000
40.11500 477.000
40.16000 384.000
40.20500 448.000
40.25000 412.000
40.29500 420.000
40.34000 427.000
40.38500 466.000
40.43000 434.000
40.47500 452.000
40.52000 437.000
40.56500 439.000
40.61000 415.000
40.65500 400.000
40.70000 416.000
40.74500 408.000
40.79000 378.000
40.83500 369.000
40.88000 389.000
40.92500 349.000
40.97000 383.000
41.01500 374.000
41.06000 381.000
41.10500 356.000
41.15000 371.000
41.19500 371.000
41.24000 333.000
41.28500 381.000
41.33000 396.000
41.37500 381.000
41.42000 364.000
41.46500 367.000
41.51000 359.000
41.55500 354.000
41.60000 373.000
41.64500 335.000
41.69000 348.000
41.73500 358.000
41.78000 355.000
41.82500 356.000
41.87000 344.000
41.91500 333.000
41.96000 378.000
42.00500 321.000
42.05000 373.000
42.09500 362.000
42.14000 357.000
42.18500 368.000
42.23000 336.000
42.27500 344.000
42.32000 342.000
42.36500 351.000
42.41000 345.000
42.45500 364.000
42.50000 379.000
42.54500 371.000
42.59000 362.000
42.63500 370.000
42.68000 365.000
42.72500 373.000
42.77000 360.000
42.81500 407.000
42.86000 374.000
42.90500 396.000
42.95000 389.000
42.99500 421.000
43.04000 460.000
43.08500 475.000
43.13000 493.000
43.17500 519.000
43.22000 550.000
43.26500 604.000
43.31000 614.000
43.35500 582.000
43.40000 552.000
43.44500 518.000
43.49000 507.000
43.53500 481.000
43.58000 456.000
43.62500 465.000
43.67000 405.000
43.71500 388.000
43.76000 361.000
43.80500 387.000
43.85000 388.000
43.89500 376.000
43.94000 388.000
43.98500 377.000
44.03000 374.000
44.07500 381.000
44.12000 383.000
44.16500 354.000
44.21000 410.000
44.25500 403.000
44.30000 424.000
44.34500 451.000
44.39000 437.000
44.43500 462.000
44.48000 427.000
44.52500 446.000
44.57000 436.000
44.61500 418.000
44.66000 403.000
44.70500 420.000
44.75000 392.000
44.79500 403.000
44.84000 407.000
44.88500 404.000
44.93000 416.000
44.97500 391.000
45.02000 388.000
45.06500 405.000
45.11000 384.000
45.15500 388.000
45.20000 369.000
45.24500 426.000
45.29000 373.000
45.33500 391.000
45.38000 372.000
45.42500 406.000
45.47000 388.000
45.51500 392.000
45.56000 383.000
45.60500 373.000
45.65000 391.000
45.69500 370.000
45.74000 367.000
45.78500 380.000
45.83000 372.000
45.87500 353.000
45.92000 355.000
45.96500 368.000
46.01000 389.000
46.05500 389.000
46.10000 368.000
46.14500 394.000
46.19000 391.000
46.23500 379.000
46.28000 342.000
46.32500 388.000
46.37000 396.000
46.41500 344.000
46.46000 362.000
46.50500 353.000
46.55000 334.000
46.59500 336.000
46.64000 335.000
46.68500 359.000
46.73000 347.000
46.77500 333.000
46.82000 365.000
46.86500 349.000
46.91000 373.000
46.95500 336.000
47.00000 329.000
47.04500 324.000
47.09000 345.000
47.13500 343.000
47.18000 331.000
47.22500 337.000
47.27000 313.000
47.31500 320.000
47.36000 323.000
47.40500 320.000
47.45000 313.000
47.49500 296.000
47.54000 269.000
47.58500 306.000
47.63000 302.000
47.67500 306.000
47.72000 279.000
47.76500 267.000
47.81000 285.000
47.85500 286.000
47.90000 282.000
47.94500 292.000
47.99000 332.000
48.03500 303.000
48.08000 271.000
48.12500 261.000
48.17000 287.000
48.21500 287.000
48.26000 269.000
48.30500 281.000
48.35000 282.000
48.39500 290.000
48.44000 285.000
48.48500 262.000
48.53000 264.000
48.57500 259.000
48.62000 262.000
48.66500 288.000
48.71000 265.000
48.75500 280.000
48.80000 283.000
48.84500 279.000
48.89000 259.000
48.93500 247.000
48.98000 272.000
49.02500 282.000
49.07000 284.000
49.11500 274.000
49.16000 248.000
49.20500 288.000
49.25000 248.000
49.29500 266.000
49.34000 317.000
49.38500 261.000
49.43000 303.000
49.47500 275.000
49.52000 281.000
49.56500 270.000
49.61000 273.000
49.65500 281.000
49.70000 279.000
49.74500 280.000
49.79000 252.000
49.83500 260.000
49.88000 281.000
49.92500 294.000
49.97000 287.000
50.01500 335.000
50.06000 296.000
50.10500 313.000
50.15000 325.000
50.19500 323.000
50.24000 302.000
50.28500 285.000
50.33000 291.000
50.37500 266.000
50.42000 274.000
50.46500 280.000
50.51000 293.000
50.55500 290.000
50.60000 290.000
50.64500 304.000
50.69000 286.000
50.73500 292.000
50.78000 273.000
50.82500 301.000
50.87000 272.000
50.91500 280.000
50.96000 302.000
51.00500 290.000
51.05000 310.000
51.09500 272.000
51.14000 297.000
51.18500 276.000
51.23000 269.000
51.27500 312.000
51.32000 274.000
51.36500 291.000
51.41000 286.000
51.45500 281.000
51.50000 296.000
51.54500 283.000
51.59000 313.000
51.63500 310.000
51.68000 289.000
51.72500 269.000
51.77000 256.000
51.81500 279.000
51.86000 270.000
51.90500 261.000
51.95000 277.000
51.99500 276.000
52.04000 243.000
52.08500 256.000
52.13000 246.000
52.17500 271.000
52.22000 271.000
52.26500 260.000
52.31000 246.000
52.35500 304.000
52.40000 272.000
52.44500 271.000
52.49000 276.000
52.53500 283.000
52.58000 244.000
52.62500 267.000
52.67000 269.000
52.71500 275.000
52.76000 262.000
52.80500 298.000
52.85000 286.000
52.89500 254.000
52.94000 279.000
52.98500 290.000
53.03000 297.000
53.07500 277.000
53.12000 299.000
53.16500 295.000
53.21000 288.000
53.25500 287.000
53.30000 287.000
53.34500 295.000
53.39000 258.000
53.43500 264.000
53.48000 264.000
53.52500 271.000
53.57000 258.000
53.61500 255.000
53.66000 271.000
53.70500 255.000
53.75000 277.000
53.79500 257.000
53.84000 260.000
53.88500 259.000
53.93000 274.000
53.97500 270.000
54.02000 266.000
54.06500 273.000
54.11000 259.000
54.15500 299.000
54.20000 268.000
54.24500 296.000
54.29000 263.000
54.33500 300.000
54.38000 269.000
54.42500 260.000
54.47000 241.000
54.51500 265.000
54.56000 249.000
54.60500 283.000
54.65000 260.000
54.69500 289.000
54.74000 276.000
54.78500 258.000
54.83000 271.000
54.87500 252.000
54.92000 239.000
54.96500 249.000
55.01000 260.000
55.05500 250.000
55.10000 238.000
55.14500 253.000
55.19000 240.000
55.23500 250.000
55.28000 242.000
55.32500 255.000
55.37000 228.000
55.41500 229.000
55.46000 269.000
55.50500 228.000
55.55000 229.000
55.59500 218.000
55.64000 253.000
55.68500 269.000
55.73000 273.000
55.77500 228.000
55.82000 257.000
55.86500 235.000
55.91000 239.000
55.95500 252.000
56.00000 234.000
56.04500 246.000
56.09000 257.000
56.13500 276.000
56.18000 252.000
56.22500 255.000
56.27000 230.000
56.31500 245.000
56.36000 252.000
56.40500 259.000
56.45000 245.000
56.49500 249.000
56.54000 233.000
56.58500 209.000
56.63000 243.000
56.67500 234.000
56.72000 241.000
56.76500 293.000
56.81000 259.000
56.85500 277.000
56.90000 246.000
56.94500 268.000
56.99000 267.000
57.03500 260.000
57.08000 276.000
57.12500 256.000
57.17000 275.000
57.21500 293.000
57.26000 273.000
57.30500 318.000
57.35000 323.000
57.39500 288.000
57.44000 288.000
57.48500 287.000
57.53000 290.000
57.57500 270.000
57.62000 270.000
57.66500 312.000
57.71000 286.000
57.75500 298.000
57.80000 277.000
57.84500 254.000
57.89000 260.000
57.93500 293.000
57.98000 265.000
58.02500 295.000
58.07000 272.000
58.11500 263.000
58.16000 258.000
58.20500 283.000
58.25000 290.000
58.29500 293.000
58.34000 273.000
58.38500 267.000
58.43000 281.000
58.47500 259.000
58.52000 275.000
58.56500 250.000
58.61000 261.000
58.65500 268.000
58.70000 259.000
58.74500 258.000
58.79000 242.000
58.83500 253.000
58.88000 236.000
58.92500 249.000
58.97000 230.000
59.01500 237.000
59.06000 258.000
59.10500 261.000
59.15000 240.000
59.19500 248.000
59.24000 239.000
59.28500 248.000
59.33000 248.000
59.37500 234.000
59.42000 246.000
59.46500 229.000
59.51000 233.000
59.55500 255.000
59.60000 224.000
59.64500 221.000
59.69000 222.000
59.73500 261.000
59.78000 230.000
59.82500 230.000
59.87000 253.000
59.91500 222.000
59.96000 220.000
60.00500 220.000
60.05000 225.000
60.09500 232.000
60.14000 205.000
60.18500 232.000
60.23000 225.000
60.27500 246.000
60.32000 256.000
60.36500 233.000
60.41000 224.000
60.45500 266.000
60.50000 240.000
60.54500 234.000
60.59000 246.000
60.63500 225.000
60.68000 234.000
60.72500 222.000
60.77000 220.000
60.81500 246.000
60.86000 224.000
60.90500 231.000
60.95000 240.000
60.99500 230.000
61.04000 222.000
61.08500 247.000
61.13000 240.000
61.17500 236.000
61.22000 237.000
61.26500 241.000
61.31000 212.000
61.35500 245.000
61.40000 251.000
61.44500 221.000
61.49000 238.000
61.53500 226.000
61.58000 235.000
61.62500 211.000
61.67000 227.000
61.71500 223.000
61.76000 198.000
61.80500 217.000
61.85000 224.000
61.89500 215.000
61.94000 227.000
61.98500 203.000