File: ISoD/xrd_data/HSC196_NM_range_5.xy
2.00000 5.000
2.04500 6.000
2.09000 4.000
2.13500 5.000
2.18000 3.000
2.22500 8.000
2.27000 10.000
2.31500 5.000
2.36000 1.000
2.40500 4.000
2.45000 2.000
2.49500 6.000
2.54000 1.000
2.58500 2.000
2.63000 1.000
2.67500 6.000
2.72000 12.000
2.76500 35.000
2.81000 80.000
2.85500 153.000
2.90000 195.000
2.94500 230.000
2.99000 265.000
3.03500 264.000
3.08000 259.000
3.12500 283.000
3.17000 242.000
3.21500 286.000
3.26000 285.000
3.30500 272.000
3.35000 287.000
3.39500 264.000
3.44000 277.000
3.48500 299.000
3.53000 295.000
3.57500 289.000
3.62000 291.000
3.66500 288.000
3.71000 307.000
3.75500 354.000
3.80000 305.000
3.84500 313.000
3.89000 327.000
3.93500 300.000
3.98000 318.000
4.02500 328.000
4.07000 309.000
4.11500 329.000
4.16000 334.000
4.20500 313.000
4.25000 323.000
4.29500 331.000
4.34000 353.000
4.38500 349.000
4.43000 333.000
4.47500 360.000
4.52000 387.000
4.56500 343.000
4.61000 370.000
4.65500 356.000
4.70000 359.000
4.74500 353.000
4.79000 366.000
4.83500 364.000
4.88000 369.000
4.92500 375.000
4.97000 363.000
5.01500 387.000
5.06000 418.000
5.10500 390.000
5.15000 381.000
5.19500 383.000
5.24000 363.000
5.28500 371.000
5.33000 399.000
5.37500 390.000
5.42000 408.000
5.46500 368.000
5.51000 386.000
5.55500 395.000
5.60000 404.000
5.64500 411.000
5.69000 412.000
5.73500 414.000
5.78000 440.000
5.82500 400.000
5.87000 400.000
5.91500 410.000
5.96000 400.000
6.00500 409.000
6.05000 402.000
6.09500 448.000
6.14000 418.000
6.18500 418.000
6.23000 407.000
6.27500 426.000
6.32000 416.000
6.36500 406.000
6.41000 426.000
6.45500 406.000
6.50000 427.000
6.54500 466.000
6.59000 457.000
6.63500 438.000
6.68000 487.000
6.72500 440.000
6.77000 432.000
6.81500 446.000
6.86000 422.000
6.90500 448.000
6.95000 454.000
6.99500 472.000
7.04000 424.000
7.08500 469.000
7.13000 471.000
7.17500 474.000
7.22000 455.000
7.26500 463.000
7.31000 449.000
7.35500 458.000
7.40000 453.000
7.44500 448.000
7.49000 503.000
7.53500 496.000
7.58000 518.000
7.62500 570.000
7.67000 605.000
7.71500 615.000
7.76000 708.000
7.80500 790.000
7.85000 1002.000
7.89500 1302.000
7.94000 1738.000
7.98500 1827.000
8.03000 1071.000
8.07500 812.000
8.12000 688.000
8.16500 644.000
8.21000 608.000
8.25500 590.000
8.30000 566.000
8.34500 567.000
8.39000 552.000
8.43500 551.000
8.48000 538.000
8.52500 527.000
8.57000 537.000
8.61500 558.000
8.66000 533.000
8.70500 549.000
8.75000 499.000
8.79500 547.000
8.84000 523.000
8.88500 536.000
8.93000 511.000
8.97500 551.000
9.02000 555.000
9.06500 529.000
9.11000 493.000
9.15500 543.000
9.20000 544.000
9.24500 527.000
9.29000 542.000
9.33500 493.000
9.38000 526.000
9.42500 501.000
9.47000 573.000
9.51500 515.000
9.56000 512.000
9.60500 560.000
9.65000 578.000
9.69500 566.000
9.74000 627.000
9.78500 610.000
9.83000 652.000
9.87500 659.000
9.92000 742.000
9.96500 822.000
10.01000 850.000
10.05500 1018.000
10.10000 1015.000
10.14500 923.000
10.19000 815.000
10.23500 677.000
10.28000 647.000
10.32500 627.000
10.37000 575.000
10.41500 570.000
10.46000 510.000
10.50500 529.000
10.55000 538.000
10.59500 551.000
10.64000 495.000
10.68500 494.000
10.73000 487.000
10.77500 529.000
10.82000 544.000
10.86500 520.000
10.91000 506.000
10.95500 508.000
11.00000 490.000
11.04500 493.000
11.09000 531.000
11.13500 510.000
11.18000 520.000
11.22500 459.000
11.27000 488.000
11.31500 482.000
11.36000 507.000
11.40500 506.000
11.45000 490.000
11.49500 556.000
11.54000 495.000
11.58500 535.000
11.63000 525.000
11.67500 511.000
11.72000 532.000
11.76500 491.000
11.81000 510.000
11.85500 479.000
11.90000 516.000
11.94500 505.000
11.99000 505.000
12.03500 438.000
12.08000 503.000
12.12500 502.000
12.17000 512.000
12.21500 498.000
12.26000 480.000
12.30500 502.000
12.35000 507.000
12.39500 472.000
12.44000 483.000
12.48500 479.000
12.53000 515.000
12.57500 495.000
12.62000 462.000
12.66500 470.000
12.71000 504.000
12.75500 483.000
12.80000 512.000
12.84500 481.000
12.89000 495.000
12.93500 483.000
12.98000 458.000
13.02500 498.000
13.07000 502.000
13.11500 504.000
13.16000 500.000
13.20500 474.000
13.25000 487.000
13.29500 492.000
13.34000 491.000
13.38500 516.000
13.43000 506.000
13.47500 479.000
13.52000 489.000
13.56500 508.000
13.61000 477.000
13.65500 491.000
13.70000 477.000
13.74500 479.000
13.79000 477.000
13.83500 473.000
13.88000 479.000
13.92500 466.000
13.97000 487.000
14.01500 493.000
14.06000 491.000
14.10500 484.000
14.15000 529.000
14.19500 476.000
14.24000 504.000
14.28500 507.000
14.33000 496.000
14.37500 486.000
14.42000 497.000
14.46500 507.000
14.51000 498.000
14.55500 482.000
14.60000 486.000
14.64500 488.000
14.69000 491.000
14.73500 500.000
14.78000 477.000
14.82500 509.000
14.87000 481.000
14.91500 490.000
14.96000 534.000
15.00500 561.000
15.05000 553.000
15.09500 570.000
15.14000 557.000
15.18500 588.000
15.23000 606.000
15.27500 556.000
15.32000 606.000
15.36500 497.000
15.41000 492.000
15.45500 515.000
15.50000 492.000
15.54500 489.000
15.59000 506.000
15.63500 515.000
15.68000 464.000
15.72500 480.000
15.77000 454.000
15.81500 478.000
15.86000 489.000
15.90500 501.000
15.95000 506.000
15.99500 496.000
16.04000 497.000
16.08500 504.000
16.13000 484.000
16.17500 514.000
16.22000 513.000
16.26500 498.000
16.31000 499.000
16.35500 491.000
16.40000 486.000
16.44500 495.000
16.49000 499.000
16.53500 500.000
16.58000 488.000
16.62500 474.000
16.67000 467.000
16.71500 490.000
16.76000 477.000
16.80500 501.000
16.85000 507.000
16.89500 458.000
16.94000 488.000
16.98500 503.000
17.03000 476.000
17.07500 490.000
17.12000 504.000
17.16500 487.000
17.21000 493.000
17.25500 499.000
17.30000 475.000
17.34500 491.000
17.39000 516.000
17.43500 485.000
17.48000 527.000
17.52500 506.000
17.57000 478.000
17.61500 454.000
17.66000 507.000
17.70500 488.000
17.75000 484.000
17.79500 488.000
17.84000 516.000
17.88500 495.000
17.93000 490.000
17.97500 495.000
18.02000 516.000
18.06500 504.000
18.11000 503.000
18.15500 506.000
18.20000 494.000
18.24500 521.000
18.29000 481.000
18.33500 515.000
18.38000 529.000
18.42500 544.000
18.47000 607.000
18.51500 608.000
18.56000 630.000
18.60500 694.000
18.65000 691.000
18.69500 637.000
18.74000 653.000
18.78500 621.000
18.83000 548.000
18.87500 563.000
18.92000 544.000
18.96500 515.000
19.01000 524.000
19.05500 506.000
19.10000 508.000
19.14500 520.000
19.19000 495.000
19.23500 482.000
19.28000 488.000
19.32500 552.000
19.37000 513.000
19.41500 505.000
19.46000 488.000
19.50500 503.000
19.55000 486.000
19.59500 510.000
19.64000 504.000
19.68500 525.000
19.73000 545.000
19.77500 525.000
19.82000 513.000
19.86500 510.000
19.91000 481.000
19.95500 484.000
20.00000 519.000
20.04500 483.000
20.09000 517.000
20.13500 538.000
20.18000 520.000
20.22500 519.000
20.27000 504.000
20.31500 518.000
20.36000 549.000
20.40500 498.000
20.45000 530.000
20.49500 548.000
20.54000 503.000
20.58500 532.000
20.63000 533.000
20.67500 538.000
20.72000 543.000
20.76500 506.000
20.81000 535.000
20.85500 541.000
20.90000 551.000
20.94500 550.000
20.99000 539.000
21.03500 536.000
21.08000 557.000
21.12500 537.000
21.17000 541.000
21.21500 550.000
21.26000 566.000
21.30500 603.000
21.35000 597.000
21.39500 559.000
21.44000 546.000
21.48500 615.000
21.53000 551.000
21.57500 574.000
21.62000 582.000
21.66500 548.000
21.71000 574.000
21.75500 602.000
21.80000 621.000
21.84500 711.000
21.89000 708.000
21.93500 666.000
21.98000 691.000
22.02500 729.000
22.07000 731.000
22.11500 697.000
22.16000 709.000
22.20500 646.000
22.25000 642.000
22.29500 657.000
22.34000 690.000
22.38500 681.000
22.43000 630.000
22.47500 662.000
22.52000 669.000
22.56500 674.000
22.61000 660.000
22.65500 688.000
22.70000 715.000
22.74500 748.000
22.79000 766.000
22.83500 807.000
22.88000 845.000
22.92500 909.000
22.97000 876.000
23.01500 896.000
23.06000 876.000
23.10500 794.000
23.15000 747.000
23.19500 767.000
23.24000 697.000
23.28500 708.000
23.33000 656.000
23.37500 690.000
23.42000 657.000
23.46500 609.000
23.51000 676.000
23.55500 686.000
23.60000 669.000
23.64500 616.000
23.69000 624.000
23.73500 654.000
23.78000 619.000
23.82500 662.000
23.87000 638.000
23.91500 652.000
23.96000 655.000
24.00500 718.000
24.05000 726.000
24.09500 710.000
24.14000 699.000
24.18500 695.000
24.23000 662.000
24.27500 690.000
24.32000 769.000
24.36500 704.000
24.41000 746.000
24.45500 723.000
24.50000 748.000
24.54500 748.000
24.59000 758.000
24.63500 789.000
24.68000 806.000
24.72500 780.000
24.77000 759.000
24.81500 732.000
24.86000 745.000
24.90500 739.000
24.95000 714.000
24.99500 764.000
25.04000 766.000
25.08500 774.000
25.13000 753.000
25.17500 739.000
25.22000 757.000
25.26500 734.000
25.31000 800.000
25.35500 762.000
25.40000 844.000
25.44500 793.000
25.49000 849.000
25.53500 838.000
25.58000 859.000
25.62500 865.000
25.67000 900.000
25.71500 877.000
25.76000 865.000
25.80500 885.000
25.85000 894.000
25.89500 841.000
25.94000 834.000
25.98500 817.000
26.03000 789.000
26.07500 826.000
26.12000 808.000
26.16500 811.000
26.21000 792.000
26.25500 818.000
26.30000 854.000
26.34500 842.000
26.39000 783.000
26.43500 850.000
26.48000 890.000
26.52500 857.000
26.57000 893.000
26.61500 850.000
26.66000 868.000
26.70500 868.000
26.75000 895.000
26.79500 928.000
26.84000 929.000
26.88500 947.000
26.93000 928.000
26.97500 947.000
27.02000 980.000
27.06500 968.000
27.11000 1008.000
27.15500 1067.000
27.20000 1015.000
27.24500 1044.000
27.29000 1049.000
27.33500 1135.000
27.38000 1231.000
27.42500 1358.000
27.47000 1505.000
27.51500 1646.000
27.56000 1990.000
27.60500 2347.000
27.65000 2955.000
27.69500 3458.000
27.74000 3754.000
27.78500 3549.000
27.83000 3236.000
27.87500 3011.000
27.92000 2780.000
27.96500 2650.000
28.01000 2586.000
28.05500 2372.000
28.10000 2199.000
28.14500 1976.000
28.19000 1919.000
28.23500 1789.000
28.28000 1598.000
28.32500 1573.000
28.37000 1429.000
28.41500 1309.000
28.46000 1319.000
28.50500 1238.000
28.55000 1186.000
28.59500 1072.000
28.64000 1079.000
28.68500 1053.000
28.73000 1062.000
28.77500 1000.000
28.82000 912.000
28.86500 916.000
28.91000 904.000
28.95500 946.000
29.00000 930.000
29.04500 901.000
29.09000 950.000
29.13500 962.000
29.18000 992.000
29.22500 930.000
29.27000 846.000
29.31500 803.000
29.36000 771.000
29.40500 803.000
29.45000 738.000
29.49500 745.000
29.54000 761.000
29.58500 743.000
29.63000 760.000
29.67500 744.000
29.72000 748.000
29.76500 761.000
29.81000 753.000
29.85500 761.000
29.90000 761.000
29.94500 744.000
29.99000 723.000
30.03500 717.000
30.08000 736.000
30.12500 740.000
30.17000 797.000
30.21500 762.000
30.26000 768.000
30.30500 842.000
30.35000 834.000
30.39500 801.000
30.44000 808.000
30.48500 824.000
30.53000 782.000
30.57500 744.000
30.62000 803.000
30.66500 796.000
30.71000 761.000
30.75500 729.000
30.80000 714.000
30.84500 706.000
30.89000 684.000
30.93500 695.000
30.98000 672.000
31.02500 655.000
31.07000 643.000
31.11500 630.000
31.16000 621.000
31.20500 625.000
31.25000 621.000
31.29500 630.000
31.34000 663.000
31.38500 664.000
31.43000 638.000
31.47500 669.000
31.52000 642.000
31.56500 648.000
31.61000 623.000
31.65500 655.000
31.70000 642.000
31.74500 674.000
31.79000 651.000
31.83500 635.000
31.88000 603.000
31.92500 636.000
31.97000 593.000
32.01500 679.000
32.06000 649.000
32.10500 667.000
32.15000 649.000
32.19500 690.000
32.24000 718.000
32.28500 804.000
32.33000 820.000
32.37500 756.000
32.42000 735.000
32.46500 685.000
32.51000 634.000
32.55500 600.000
32.60000 567.000
32.64500 586.000
32.69000 505.000
32.73500 530.000
32.78000 508.000
32.82500 515.000
32.87000 486.000
32.91500 462.000
32.96000 491.000
33.00500 471.000
33.05000 513.000
33.09500 474.000
33.14000 466.000
33.18500 466.000
33.23000 448.000
33.27500 442.000
33.32000 451.000
33.36500 459.000
33.41000 475.000
33.45500 444.000
33.50000 452.000
33.54500 441.000
33.59000 435.000
33.63500 492.000
33.68000 443.000
33.72500 462.000
33.77000 450.000
33.81500 438.000
33.86000 457.000
33.90500 465.000
33.95000 454.000
33.99500 467.000
34.04000 456.000
34.08500 462.000
34.13000 447.000
34.17500 432.000
34.22000 444.000
34.26500 423.000
34.31000 459.000
34.35500 441.000
34.40000 455.000
34.44500 424.000
34.49000 438.000
34.53500 464.000
34.58000 448.000
34.62500 419.000
34.67000 447.000
34.71500 445.000
34.76000 433.000
34.80500 435.000
34.85000 454.000
34.89500 462.000
34.94000 463.000
34.98500 446.000
35.03000 484.000
35.07500 505.000
35.12000 506.000
35.16500 482.000
35.21000 507.000
35.25500 485.000
35.30000 549.000
35.34500 635.000
35.39000 698.000
35.43500 911.000
35.48000 965.000
35.52500 849.000
35.57000 666.000
35.61500 589.000
35.66000 550.000
35.70500 535.000
35.75000 498.000
35.79500 498.000
35.84000 488.000
35.88500 470.000
35.93000 510.000
35.97500 482.000
36.02000 474.000
36.06500 495.000
36.11000 491.000
36.15500 536.000
36.20000 537.000
36.24500 514.000
36.29000 519.000
36.33500 583.000
36.38000 536.000
36.42500 544.000
36.47000 576.000
36.51500 554.000
36.56000 533.000
36.60500 484.000
36.65000 542.000
36.69500 528.000
36.74000 499.000
36.78500 524.000
36.83000 488.000
36.87500 423.000
36.92000 460.000
36.96500 460.000
37.01000 474.000
37.05500 488.000
37.10000 486.000
37.14500 477.000
37.19000 529.000
37.23500 481.000
37.28000 516.000
37.32500 527.000
37.37000 531.000
37.41500 532.000
37.46000 528.000
37.50500 539.000
37.55000 496.000
37.59500 556.000
37.64000 502.000
37.68500 464.000
37.73000 477.000
37.77500 499.000
37.82000 469.000
37.86500 468.000
37.91000 475.000
37.95500 497.000
38.00000 500.000
38.04500 458.000
38.09000 445.000
38.13500 462.000
38.18000 459.000
38.22500 477.000
38.27000 422.000
38.31500 442.000
38.36000 450.000
38.40500 471.000
38.45000 479.000
38.49500 460.000
38.54000 438.000
38.58500 489.000
38.63000 462.000
38.67500 490.000
38.72000 442.000
38.76500 450.000
38.81000 455.000
38.85500 446.000
38.90000 452.000
38.94500 442.000
38.99000 437.000
39.03500 431.000
39.08000 428.000
39.12500 431.000
39.17000 390.000
39.21500 384.000
39.26000 396.000
39.30500 419.000
39.35000 368.000
39.39500 380.000
39.44000 417.000
39.48500 388.000
39.53000 385.000
39.57500 377.000
39.62000 394.000
39.66500 417.000
39.71000 421.000
39.75500 405.000
39.80000 394.000
39.84500 422.000
39.89000 399.000
39.93500 413.000
39.98000 421.000
40.02500 452.000
40.07000 458.000
40.11500 445.000
40.16000 431.000
40.20500 443.000
40.25000 423.000
40.29500 425.000
40.34000 437.000
40.38500 425.000
40.43000 434.000
40.47500 472.000
40.52000 399.000
40.56500 407.000
40.61000 439.000
40.65500 431.000
40.70000 413.000
40.74500 393.000
40.79000 410.000
40.83500 369.000
40.88000 380.000
40.92500 391.000
40.97000 393.000
41.01500 404.000
41.06000 371.000
41.10500 387.000
41.15000 361.000
41.19500 371.000
41.24000 398.000
41.28500 360.000
41.33000 338.000
41.37500 374.000
41.42000 367.000
41.46500 351.000
41.51000 352.000
41.55500 361.000
41.60000 363.000
41.64500 379.000
41.69000 358.000
41.73500 364.000
41.78000 360.000
41.82500 374.000
41.87000 372.000
41.91500 338.000
41.96000 333.000
42.00500 354.000
42.05000 342.000
42.09500 354.000
42.14000 362.000
42.18500 331.000
42.23000 341.000
42.27500 342.000
42.32000 367.000
42.36500 366.000
42.41000 394.000
42.45500 358.000
42.50000 368.000
42.54500 366.000
42.59000 349.000
42.63500 381.000
42.68000 348.000
42.72500 373.000
42.77000 406.000
42.81500 369.000
42.86000 367.000
42.90500 368.000
42.95000 379.000
42.99500 408.000
43.04000 457.000
43.08500 448.000
43.13000 481.000
43.17500 549.000
43.22000 614.000
43.26500 627.000
43.31000 586.000
43.35500 610.000
43.40000 507.000
43.44500 469.000
43.49000 486.000
43.53500 452.000
43.58000 459.000
43.62500 448.000
43.67000 392.000
43.71500 422.000
43.76000 381.000
43.80500 385.000
43.85000 364.000
43.89500 345.000
43.94000 386.000
43.98500 356.000
44.03000 364.000
44.07500 381.000
44.12000 401.000
44.16500 405.000
44.21000 399.000
44.25500 420.000
44.30000 461.000
44.34500 439.000
44.39000 476.000
44.43500 447.000
44.48000 432.000
44.52500 440.000
44.57000 412.000
44.61500 452.000
44.66000 399.000
44.70500 420.000
44.75000 403.000
44.79500 404.000
44.84000 397.000
44.88500 406.000
44.93000 371.000
44.97500 430.000
45.02000 397.000
45.06500 391.000
45.11000 384.000
45.15500 396.000
45.20000 388.000
45.24500 390.000
45.29000 396.000
45.33500 384.000
45.38000 386.000
45.42500 411.000
45.47000 377.000
45.51500 387.000
45.56000 372.000
45.60500 405.000
45.65000 387.000
45.69500 389.000
45.74000 389.000
45.78500 378.000
45.83000 362.000
45.87500 371.000
45.92000 376.000
45.96500 329.000
46.01000 408.000
46.05500 373.000
46.10000 381.000
46.14500 394.000
46.19000 388.000
46.23500 396.000
46.28000 392.000
46.32500 377.000
46.37000 370.000
46.41500 371.000
46.46000 375.000
46.50500 343.000
46.55000 340.000
46.59500 346.000
46.64000 323.000
46.68500 312.000
46.73000 340.000
46.77500 336.000
46.82000 342.000
46.86500 348.000
46.91000 343.000
46.95500 328.000
47.00000 355.000
47.04500 352.000
47.09000 343.000
47.13500 352.000
47.18000 304.000
47.22500 328.000
47.27000 321.000
47.31500 323.000
47.36000 290.000
47.40500 315.000
47.45000 281.000
47.49500 326.000
47.54000 291.000
47.58500 307.000
47.63000 306.000
47.67500 313.000
47.72000 316.000
47.76500 277.000
47.81000 296.000
47.85500 292.000
47.90000 281.000
47.94500 284.000
47.99000 325.000
48.03500 303.000
48.08000 309.000
48.12500 289.000
48.17000 296.000
48.21500 265.000
48.26000 261.000
48.30500 291.000
48.35000 307.000
48.39500 302.000
48.44000 284.000
48.48500 264.000
48.53000 275.000
48.57500 273.000
48.62000 264.000
48.66500 269.000
48.71000 264.000
48.75500 259.000
48.80000 281.000
48.84500 287.000
48.89000 293.000
48.93500 264.000
48.98000 302.000
49.02500 272.000
49.07000 270.000
49.11500 268.000
49.16000 292.000
49.20500 260.000
49.25000 279.000
49.29500 262.000
49.34000 272.000
49.38500 265.000
49.43000 270.000
49.47500 255.000
49.52000 281.000
49.56500 261.000
49.61000 268.000
49.65500 276.000
49.70000 273.000
49.74500 262.000
49.79000 273.000
49.83500 262.000
49.88000 270.000
49.92500 255.000
49.97000 275.000
50.01500 291.000
50.06000 298.000
50.10500 294.000
50.15000 317.000
50.19500 322.000
50.24000 294.000
50.28500 299.000
50.33000 270.000
50.37500 284.000
50.42000 279.000
50.46500 247.000
50.51000 300.000
50.55500 274.000
50.60000 305.000
50.64500 293.000
50.69000 276.000
50.73500 300.000
50.78000 275.000
50.82500 257.000
50.87000 290.000
50.91500 294.000
50.96000 286.000
51.00500 292.000
51.05000 284.000
51.09500 309.000
51.14000 292.000
51.18500 264.000
51.23000 300.000
51.27500 294.000
51.32000 306.000
51.36500 290.000
51.41000 288.000
51.45500 289.000
51.50000 319.000
51.54500 295.000
51.59000 285.000
51.63500 323.000
51.68000 284.000
51.72500 315.000
51.77000 288.000
51.81500 270.000
51.86000 275.000
51.90500 245.000
51.95000 263.000
51.99500 265.000
52.04000 260.000
52.08500 289.000
52.13000 272.000
52.17500 273.000
52.22000 277.000
52.26500 256.000
52.31000 260.000
52.35500 276.000
52.40000 277.000
52.44500 283.000
52.49000 286.000
52.53500 289.000
52.58000 261.000
52.62500 272.000
52.67000 273.000
52.71500 271.000
52.76000 282.000
52.80500 305.000
52.85000 290.000
52.89500 279.000
52.94000 286.000
52.98500 273.000
53.03000 302.000
53.07500 306.000
53.12000 275.000
53.16500 289.000
53.21000 272.000
53.25500 286.000
53.30000 285.000
53.34500 251.000
53.39000 284.000
53.43500 261.000
53.48000 260.000
53.52500 259.000
53.57000 294.000
53.61500 275.000
53.66000 261.000
53.70500 278.000
53.75000 249.000
53.79500 253.000
53.84000 278.000
53.88500 284.000
53.93000 262.000
53.97500 267.000
54.02000 278.000
54.06500 278.000
54.11000 276.000
54.15500 255.000
54.20000 286.000
54.24500 269.000
54.29000 264.000
54.33500 286.000
54.38000 269.000
54.42500 254.000
54.47000 280.000
54.51500 262.000
54.56000 249.000
54.60500 232.000
54.65000 269.000
54.69500 281.000
54.74000 257.000
54.78500 236.000
54.83000 247.000
54.87500 253.000
54.92000 243.000
54.96500 266.000
55.01000 244.000
55.05500 235.000
55.10000 244.000
55.14500 272.000
55.19000 255.000
55.23500 269.000
55.28000 241.000
55.32500 256.000
55.37000 259.000
55.41500 252.000
55.46000 246.000
55.50500 268.000
55.55000 233.000
55.59500 253.000
55.64000 232.000
55.68500 234.000
55.73000 237.000
55.77500 258.000
55.82000 273.000
55.86500 235.000
55.91000 234.000
55.95500 258.000
56.00000 244.000
56.04500 237.000
56.09000 235.000
56.13500 248.000
56.18000 247.000
56.22500 250.000
56.27000 247.000
56.31500 257.000
56.36000 252.000
56.40500 244.000
56.45000 252.000
56.49500 244.000
56.54000 245.000
56.58500 270.000
56.63000 260.000
56.67500 272.000
56.72000 253.000
56.76500 245.000
56.81000 244.000
56.85500 271.000
56.90000 248.000
56.94500 285.000
56.99000 264.000
57.03500 261.000
57.08000 282.000
57.12500 278.000
57.17000 284.000
57.21500 290.000
57.26000 297.000
57.30500 289.000
57.35000 304.000
57.39500 307.000
57.44000 294.000
57.48500 287.000
57.53000 312.000
57.57500 274.000
57.62000 296.000
57.66500 282.000
57.71000 292.000
57.75500 291.000
57.80000 275.000
57.84500 264.000
57.89000 267.000
57.93500 280.000
57.98000 268.000
58.02500 277.000
58.07000 276.000
58.11500 275.000
58.16000 259.000
58.20500 275.000
58.25000 282.000
58.29500 273.000
58.34000 284.000
58.38500 263.000
58.43000 275.000
58.47500 277.000
58.52000 268.000
58.56500 280.000
58.61000 277.000
58.65500 264.000
58.70000 266.000
58.74500 244.000
58.79000 255.000
58.83500 241.000
58.88000 248.000
58.92500 252.000
58.97000 266.000
59.01500 246.000
59.06000 247.000
59.10500 242.000
59.15000 258.000
59.19500 240.000
59.24000 270.000
59.28500 249.000
59.33000 245.000
59.37500 256.000
59.42000 237.000
59.46500 249.000
59.51000 253.000
59.55500 247.000
59.60000 259.000
59.64500 231.000
59.69000 235.000
59.73500 247.000
59.78000 238.000
59.82500 255.000
59.87000 226.000
59.91500 235.000
59.96000 234.000
60.00500 255.000
60.05000 241.000
60.09500 242.000
60.14000 221.000
60.18500 245.000
60.23000 259.000
60.27500 224.000
60.32000 246.000
60.36500 233.000
60.41000 225.000
60.45500 238.000
60.50000 250.000
60.54500 231.000
60.59000 253.000
60.63500 239.000
60.68000 260.000
60.72500 234.000
60.77000 237.000
60.81500 225.000
60.86000 226.000
60.90500 265.000
60.95000 238.000
60.99500 252.000
61.04000 228.000
61.08500 257.000
61.13000 237.000
61.17500 234.000
61.22000 242.000
61.26500 251.000
61.31000 242.000
61.35500 215.000
61.40000 230.000
61.44500 231.000
61.49000 244.000
61.53500 219.000
61.58000 212.000
61.62500 230.000
61.67000 214.000
61.71500 255.000
61.76000 247.000
61.80500 223.000
61.85000 216.000
61.89500 226.000
61.94000 239.000
61.98500 229.000