File: ISoD/xrd_data/HSC206.xy
2.00000 2.000
2.04500 2.000
2.09000 3.000
2.13500 3.000
2.18000 1.000
2.22500 5.000
2.27000 2.000
2.31500 1.000
2.36000 0.000
2.40500 3.000
2.45000 2.000
2.49500 3.000
2.54000 3.000
2.58500 5.000
2.63000 2.000
2.67500 3.000
2.72000 3.000
2.76500 3.000
2.81000 2.000
2.85500 2.000
2.90000 8.000
2.94500 8.000
2.99000 27.000
3.03500 110.000
3.08000 235.000
3.12500 348.000
3.17000 355.000
3.21500 332.000
3.26000 336.000
3.30500 354.000
3.35000 300.000
3.39500 327.000
3.44000 325.000
3.48500 310.000
3.53000 298.000
3.57500 263.000
3.62000 272.000
3.66500 313.000
3.71000 282.000
3.75500 272.000
3.80000 302.000
3.84500 278.000
3.89000 261.000
3.93500 274.000
3.98000 270.000
4.02500 239.000
4.07000 266.000
4.11500 261.000
4.16000 248.000
4.20500 255.000
4.25000 250.000
4.29500 272.000
4.34000 273.000
4.38500 259.000
4.43000 282.000
4.47500 255.000
4.52000 232.000
4.56500 276.000
4.61000 292.000
4.65500 265.000
4.70000 264.000
4.74500 257.000
4.79000 251.000
4.83500 258.000
4.88000 228.000
4.92500 253.000
4.97000 259.000
5.01500 245.000
5.06000 259.000
5.10500 251.000
5.15000 241.000
5.19500 261.000
5.24000 232.000
5.28500 262.000
5.33000 247.000
5.37500 240.000
5.42000 251.000
5.46500 230.000
5.51000 245.000
5.55500 238.000
5.60000 258.000
5.64500 245.000
5.69000 227.000
5.73500 245.000
5.78000 278.000
5.82500 258.000
5.87000 250.000
5.91500 238.000
5.96000 264.000
6.00500 265.000
6.05000 259.000
6.09500 240.000
6.14000 248.000
6.18500 264.000
6.23000 235.000
6.27500 253.000
6.32000 250.000
6.36500 245.000
6.41000 249.000
6.45500 251.000
6.50000 241.000
6.54500 260.000
6.59000 253.000
6.63500 256.000
6.68000 244.000
6.72500 270.000
6.77000 244.000
6.81500 226.000
6.86000 256.000
6.90500 259.000
6.95000 266.000
6.99500 291.000
7.04000 247.000
7.08500 249.000
7.13000 248.000
7.17500 253.000
7.22000 253.000
7.26500 245.000
7.31000 253.000
7.35500 263.000
7.40000 293.000
7.44500 265.000
7.49000 272.000
7.53500 245.000
7.58000 264.000
7.62500 257.000
7.67000 259.000
7.71500 269.000
7.76000 259.000
7.80500 256.000
7.85000 260.000
7.89500 250.000
7.94000 256.000
7.98500 274.000
8.03000 257.000
8.07500 241.000
8.12000 248.000
8.16500 281.000
8.21000 268.000
8.25500 245.000
8.30000 266.000
8.34500 271.000
8.39000 284.000
8.43500 264.000
8.48000 265.000
8.52500 268.000
8.57000 258.000
8.61500 251.000
8.66000 249.000
8.70500 259.000
8.75000 275.000
8.79500 263.000
8.84000 262.000
8.88500 277.000
8.93000 285.000
8.97500 283.000
9.02000 268.000
9.06500 277.000
9.11000 272.000
9.15500 268.000
9.20000 244.000
9.24500 275.000
9.29000 268.000
9.33500 273.000
9.38000 313.000
9.42500 295.000
9.47000 269.000
9.51500 261.000
9.56000 287.000
9.60500 291.000
9.65000 305.000
9.69500 290.000
9.74000 278.000
9.78500 276.000
9.83000 296.000
9.87500 281.000
9.92000 276.000
9.96500 289.000
10.01000 273.000
10.05500 276.000
10.10000 302.000
10.14500 297.000
10.19000 296.000
10.23500 280.000
10.28000 299.000
10.32500 318.000
10.37000 285.000
10.41500 290.000
10.46000 309.000
10.50500 301.000
10.55000 285.000
10.59500 300.000
10.64000 302.000
10.68500 289.000
10.73000 315.000
10.77500 292.000
10.82000 322.000
10.86500 286.000
10.91000 323.000
10.95500 305.000
11.00000 292.000
11.04500 308.000
11.09000 307.000
11.13500 323.000
11.18000 293.000
11.22500 337.000
11.27000 316.000
11.31500 341.000
11.36000 317.000
11.40500 331.000
11.45000 315.000
11.49500 324.000
11.54000 335.000
11.58500 332.000
11.63000 346.000
11.67500 344.000
11.72000 329.000
11.76500 327.000
11.81000 347.000
11.85500 373.000
11.90000 363.000
11.94500 380.000
11.99000 371.000
12.03500 345.000
12.08000 401.000
12.12500 367.000
12.17000 375.000
12.21500 382.000
12.26000 405.000
12.30500 393.000
12.35000 365.000
12.39500 389.000
12.44000 413.000
12.48500 441.000
12.53000 487.000
12.57500 461.000
12.62000 479.000
12.66500 534.000
12.71000 505.000
12.75500 528.000
12.80000 532.000
12.84500 551.000
12.89000 541.000
12.93500 505.000
12.98000 538.000
13.02500 537.000
13.07000 548.000
13.11500 562.000
13.16000 499.000
13.20500 550.000
13.25000 555.000
13.29500 567.000
13.34000 541.000
13.38500 547.000
13.43000 558.000
13.47500 547.000
13.52000 490.000
13.56500 491.000
13.61000 497.000
13.65500 478.000
13.70000 483.000
13.74500 495.000
13.79000 476.000
13.83500 496.000
13.88000 446.000
13.92500 473.000
13.97000 473.000
14.01500 469.000
14.06000 458.000
14.10500 487.000
14.15000 449.000
14.19500 450.000
14.24000 460.000
14.28500 414.000
14.33000 447.000
14.37500 397.000
14.42000 434.000
14.46500 461.000
14.51000 414.000
14.55500 435.000
14.60000 425.000
14.64500 434.000
14.69000 421.000
14.73500 424.000
14.78000 411.000
14.82500 443.000
14.87000 430.000
14.91500 447.000
14.96000 414.000
15.00500 420.000
15.05000 407.000
15.09500 424.000
15.14000 412.000
15.18500 420.000
15.23000 437.000
15.27500 405.000
15.32000 440.000
15.36500 398.000
15.41000 391.000
15.45500 397.000
15.50000 408.000
15.54500 411.000
15.59000 423.000
15.63500 408.000
15.68000 422.000
15.72500 414.000
15.77000 381.000
15.81500 394.000
15.86000 387.000
15.90500 387.000
15.95000 407.000
15.99500 437.000
16.04000 424.000
16.08500 399.000
16.13000 421.000
16.17500 421.000
16.22000 402.000
16.26500 422.000
16.31000 392.000
16.35500 394.000
16.40000 404.000
16.44500 369.000
16.49000 401.000
16.53500 435.000
16.58000 399.000
16.62500 416.000
16.67000 393.000
16.71500 395.000
16.76000 405.000
16.80500 408.000
16.85000 416.000
16.89500 398.000
16.94000 385.000
16.98500 420.000
17.03000 403.000
17.07500 372.000
17.12000 386.000
17.16500 390.000
17.21000 394.000
17.25500 374.000
17.30000 405.000
17.34500 417.000
17.39000 411.000
17.43500 426.000
17.48000 390.000
17.52500 420.000
17.57000 429.000
17.61500 447.000
17.66000 460.000
17.70500 427.000
17.75000 416.000
17.79500 426.000
17.84000 442.000
17.88500 438.000
17.93000 436.000
17.97500 463.000
18.02000 453.000
18.06500 404.000
18.11000 421.000
18.15500 433.000
18.20000 389.000
18.24500 427.000
18.29000 444.000
18.33500 442.000
18.38000 437.000
18.42500 447.000
18.47000 422.000
18.51500 426.000
18.56000 444.000
18.60500 428.000
18.65000 409.000
18.69500 417.000
18.74000 453.000
18.78500 403.000
18.83000 416.000
18.87500 391.000
18.92000 425.000
18.96500 435.000
19.01000 428.000
19.05500 420.000
19.10000 422.000
19.14500 391.000
19.19000 406.000
19.23500 415.000
19.28000 406.000
19.32500 387.000
19.37000 413.000
19.41500 400.000
19.46000 426.000
19.50500 404.000
19.55000 405.000
19.59500 391.000
19.64000 392.000
19.68500 400.000
19.73000 418.000
19.77500 412.000
19.82000 420.000
19.86500 407.000
19.91000 404.000
19.95500 418.000
20.00000 430.000
20.04500 416.000
20.09000 398.000
20.13500 431.000
20.18000 417.000
20.22500 406.000
20.27000 415.000
20.31500 441.000
20.36000 414.000
20.40500 420.000
20.45000 432.000
20.49500 414.000
20.54000 413.000
20.58500 364.000
20.63000 419.000
20.67500 412.000
20.72000 408.000
20.76500 388.000
20.81000 405.000
20.85500 430.000
20.90000 386.000
20.94500 393.000
20.99000 420.000
21.03500 439.000
21.08000 419.000
21.12500 417.000
21.17000 417.000
21.21500 423.000
21.26000 421.000
21.30500 397.000
21.35000 414.000
21.39500 423.000
21.44000 403.000
21.48500 417.000
21.53000 437.000
21.57500 389.000
21.62000 443.000
21.66500 430.000
21.71000 426.000
21.75500 416.000
21.80000 432.000
21.84500 427.000
21.89000 406.000
21.93500 406.000
21.98000 414.000
22.02500 431.000
22.07000 415.000
22.11500 418.000
22.16000 434.000
22.20500 401.000
22.25000 396.000
22.29500 425.000
22.34000 425.000
22.38500 423.000
22.43000 444.000
22.47500 420.000
22.52000 428.000
22.56500 428.000
22.61000 407.000
22.65500 417.000
22.70000 433.000
22.74500 423.000
22.79000 415.000
22.83500 429.000
22.88000 453.000
22.92500 412.000
22.97000 430.000
23.01500 414.000
23.06000 425.000
23.10500 398.000
23.15000 424.000
23.19500 439.000
23.24000 418.000
23.28500 413.000
23.33000 419.000
23.37500 395.000
23.42000 402.000
23.46500 430.000
23.51000 416.000
23.55500 447.000
23.60000 446.000
23.64500 426.000
23.69000 404.000
23.73500 418.000
23.78000 408.000
23.82500 418.000
23.87000 439.000
23.91500 439.000
23.96000 454.000
24.00500 448.000
24.05000 430.000
24.09500 465.000
24.14000 442.000
24.18500 459.000
24.23000 431.000
24.27500 450.000
24.32000 424.000
24.36500 444.000
24.41000 425.000
24.45500 458.000
24.50000 452.000
24.54500 472.000
24.59000 451.000
24.63500 480.000
24.68000 486.000
24.72500 466.000
24.77000 452.000
24.81500 490.000
24.86000 511.000
24.90500 491.000
24.95000 500.000
24.99500 547.000
25.04000 478.000
25.08500 525.000
25.13000 525.000
25.17500 506.000
25.22000 541.000
25.26500 513.000
25.31000 542.000
25.35500 556.000
25.40000 554.000
25.44500 563.000
25.49000 578.000
25.53500 558.000
25.58000 594.000
25.62500 583.000
25.67000 604.000
25.71500 596.000
25.76000 635.000
25.80500 624.000
25.85000 617.000
25.89500 657.000
25.94000 675.000
25.98500 689.000
26.03000 729.000
26.07500 763.000
26.12000 768.000
26.16500 776.000
26.21000 756.000
26.25500 798.000
26.30000 797.000
26.34500 863.000
26.39000 853.000
26.43500 903.000
26.48000 965.000
26.52500 966.000
26.57000 1023.000
26.61500 1021.000
26.66000 1062.000
26.70500 1080.000
26.75000 1092.000
26.79500 1133.000
26.84000 1250.000
26.88500 1227.000
26.93000 1300.000
26.97500 1335.000
27.02000 1347.000
27.06500 1385.000
27.11000 1514.000
27.15500 1447.000
27.20000 1452.000
27.24500 1451.000
27.29000 1503.000
27.33500 1577.000
27.38000 1535.000
27.42500 1555.000
27.47000 1563.000
27.51500 1573.000
27.56000 1518.000
27.60500 1490.000
27.65000 1449.000
27.69500 1379.000
27.74000 1352.000
27.78500 1381.000
27.83000 1262.000
27.87500 1259.000
27.92000 1156.000
27.96500 1072.000
28.01000 1097.000
28.05500 1047.000
28.10000 974.000
28.14500 938.000
28.19000 919.000
28.23500 878.000
28.28000 828.000
28.32500 840.000
28.37000 755.000
28.41500 738.000
28.46000 702.000
28.50500 659.000
28.55000 650.000
28.59500 624.000
28.64000 586.000
28.68500 652.000
28.73000 638.000
28.77500 577.000
28.82000 552.000
28.86500 572.000
28.91000 542.000
28.95500 530.000
29.00000 503.000
29.04500 527.000
29.09000 523.000
29.13500 504.000
29.18000 485.000
29.22500 487.000
29.27000 462.000
29.31500 464.000
29.36000 474.000
29.40500 439.000
29.45000 442.000
29.49500 436.000
29.54000 416.000
29.58500 399.000
29.63000 424.000
29.67500 433.000
29.72000 390.000
29.76500 386.000
29.81000 406.000
29.85500 405.000
29.90000 389.000
29.94500 369.000
29.99000 399.000
30.03500 399.000
30.08000 376.000
30.12500 369.000
30.17000 361.000
30.21500 393.000
30.26000 342.000
30.30500 378.000
30.35000 386.000
30.39500 322.000
30.44000 351.000
30.48500 346.000
30.53000 351.000
30.57500 334.000
30.62000 359.000
30.66500 316.000
30.71000 361.000
30.75500 338.000
30.80000 332.000
30.84500 364.000
30.89000 339.000
30.93500 325.000
30.98000 354.000
31.02500 342.000
31.07000 314.000
31.11500 304.000
31.16000 322.000
31.20500 342.000
31.25000 322.000
31.29500 341.000
31.34000 336.000
31.38500 307.000
31.43000 310.000
31.47500 294.000
31.52000 317.000
31.56500 303.000
31.61000 292.000
31.65500 295.000
31.70000 291.000
31.74500 281.000
31.79000 275.000
31.83500 284.000
31.88000 294.000
31.92500 275.000
31.97000 296.000
32.01500 315.000
32.06000 318.000
32.10500 283.000
32.15000 280.000
32.19500 296.000
32.24000 298.000
32.28500 262.000
32.33000 259.000
32.37500 262.000
32.42000 267.000
32.46500 280.000
32.51000 299.000
32.55500 252.000
32.60000 266.000
32.64500 280.000
32.69000 272.000
32.73500 251.000
32.78000 291.000
32.82500 253.000
32.87000 240.000
32.91500 250.000
32.96000 257.000
33.00500 254.000
33.05000 252.000
33.09500 250.000
33.14000 292.000
33.18500 251.000
33.23000 224.000
33.27500 248.000
33.32000 246.000
33.36500 242.000
33.41000 249.000
33.45500 235.000
33.50000 261.000
33.54500 235.000
33.59000 258.000
33.63500 235.000
33.68000 257.000
33.72500 244.000
33.77000 234.000
33.81500 247.000
33.86000 238.000
33.90500 214.000
33.95000 253.000
33.99500 224.000
34.04000 252.000
34.08500 226.000
34.13000 244.000
34.17500 237.000
34.22000 232.000
34.26500 238.000
34.31000 239.000
34.35500 223.000
34.40000 232.000
34.44500 217.000
34.49000 232.000
34.53500 252.000
34.58000 254.000
34.62500 220.000
34.67000 220.000
34.71500 224.000
34.76000 215.000
34.80500 211.000
34.85000 239.000
34.89500 215.000
34.94000 209.000
34.98500 218.000
35.03000 185.000
35.07500 250.000
35.12000 212.000
35.16500 230.000
35.21000 217.000
35.25500 210.000
35.30000 241.000
35.34500 215.000
35.39000 232.000
35.43500 220.000
35.48000 214.000
35.52500 220.000
35.57000 199.000
35.61500 209.000
35.66000 209.000
35.70500 232.000
35.75000 191.000
35.79500 208.000
35.84000 206.000
35.88500 235.000
35.93000 223.000
35.97500 208.000
36.02000 219.000
36.06500 224.000
36.11000 217.000
36.15500 195.000
36.20000 197.000
36.24500 224.000
36.29000 218.000
36.33500 206.000
36.38000 215.000
36.42500 226.000
36.47000 220.000
36.51500 204.000
36.56000 212.000
36.60500 209.000
36.65000 203.000
36.69500 197.000
36.74000 215.000
36.78500 192.000
36.83000 189.000
36.87500 210.000
36.92000 222.000
36.96500 191.000
37.01000 215.000
37.05500 197.000
37.10000 223.000
37.14500 206.000
37.19000 201.000
37.23500 178.000
37.28000 200.000
37.32500 210.000
37.37000 191.000
37.41500 196.000
37.46000 188.000
37.50500 199.000
37.55000 189.000
37.59500 182.000
37.64000 202.000
37.68500 184.000
37.73000 189.000
37.77500 202.000
37.82000 199.000
37.86500 183.000
37.91000 185.000
37.95500 188.000
38.00000 187.000
38.04500 189.000
38.09000 182.000
38.13500 202.000
38.18000 217.000
38.22500 210.000
38.27000 182.000
38.31500 179.000
38.36000 197.000
38.40500 183.000
38.45000 176.000
38.49500 190.000
38.54000 168.000
38.58500 199.000
38.63000 208.000
38.67500 185.000
38.72000 188.000
38.76500 209.000
38.81000 176.000
38.85500 192.000
38.90000 181.000
38.94500 185.000
38.99000 199.000
39.03500 169.000
39.08000 194.000
39.12500 194.000
39.17000 200.000
39.21500 189.000
39.26000 194.000
39.30500 193.000
39.35000 191.000
39.39500 210.000
39.44000 193.000
39.48500 188.000
39.53000 167.000
39.57500 189.000
39.62000 191.000
39.66500 195.000
39.71000 196.000
39.75500 186.000
39.80000 185.000
39.84500 194.000
39.89000 175.000
39.93500 189.000
39.98000 184.000
40.02500 186.000
40.07000 173.000
40.11500 175.000
40.16000 207.000
40.20500 195.000
40.25000 202.000
40.29500 190.000
40.34000 184.000
40.38500 169.000
40.43000 181.000
40.47500 186.000
40.52000 196.000
40.56500 184.000
40.61000 206.000
40.65500 188.000
40.70000 198.000
40.74500 185.000
40.79000 198.000
40.83500 188.000
40.88000 178.000
40.92500 192.000
40.97000 191.000
41.01500 201.000
41.06000 191.000
41.10500 173.000
41.15000 182.000
41.19500 169.000
41.24000 201.000
41.28500 198.000
41.33000 179.000
41.37500 206.000
41.42000 196.000
41.46500 200.000
41.51000 199.000
41.55500 175.000
41.60000 174.000
41.64500 183.000
41.69000 174.000
41.73500 192.000
41.78000 181.000
41.82500 183.000
41.87000 186.000
41.91500 198.000
41.96000 190.000
42.00500 187.000
42.05000 188.000
42.09500 191.000
42.14000 201.000
42.18500 212.000
42.23000 194.000
42.27500 184.000
42.32000 185.000
42.36500 199.000
42.41000 206.000
42.45500 202.000
42.50000 191.000
42.54500 188.000
42.59000 221.000
42.63500 191.000
42.68000 185.000
42.72500 190.000
42.77000 196.000
42.81500 215.000
42.86000 187.000
42.90500 196.000
42.95000 211.000
42.99500 192.000
43.04000 196.000
43.08500 198.000
43.13000 216.000
43.17500 212.000
43.22000 203.000
43.26500 198.000
43.31000 190.000
43.35500 201.000
43.40000 207.000
43.44500 188.000
43.49000 198.000
43.53500 202.000
43.58000 197.000
43.62500 206.000
43.67000 186.000
43.71500 214.000
43.76000 208.000
43.80500 199.000
43.85000 213.000
43.89500 195.000
43.94000 208.000
43.98500 233.000
44.03000 191.000
44.07500 217.000
44.12000 225.000
44.16500 200.000
44.21000 188.000
44.25500 232.000
44.30000 211.000
44.34500 210.000
44.39000 230.000
44.43500 211.000
44.48000 213.000
44.52500 208.000
44.57000 208.000
44.61500 218.000
44.66000 228.000
44.70500 193.000
44.75000 209.000
44.79500 199.000
44.84000 208.000
44.88500 193.000
44.93000 192.000
44.97500 234.000
45.02000 193.000
45.06500 198.000
45.11000 212.000
45.15500 210.000
45.20000 189.000
45.24500 196.000
45.29000 210.000
45.33500 192.000
45.38000 220.000
45.42500 211.000
45.47000 176.000
45.51500 222.000
45.56000 192.000
45.60500 212.000
45.65000 190.000
45.69500 204.000
45.74000 186.000
45.78500 192.000
45.83000 187.000
45.87500 209.000
45.92000 193.000
45.96500 175.000
46.01000 186.000
46.05500 186.000
46.10000 201.000
46.14500 212.000
46.19000 200.000
46.23500 196.000
46.28000 203.000
46.32500 206.000
46.37000 212.000
46.41500 194.000
46.46000 200.000
46.50500 185.000
46.55000 182.000
46.59500 186.000
46.64000 199.000
46.68500 176.000
46.73000 192.000
46.77500 179.000
46.82000 172.000
46.86500 195.000
46.91000 168.000
46.95500 184.000
47.00000 221.000
47.04500 215.000
47.09000 186.000
47.13500 180.000
47.18000 194.000
47.22500 174.000
47.27000 181.000
47.31500 184.000
47.36000 180.000
47.40500 176.000
47.45000 163.000
47.49500 166.000
47.54000 187.000
47.58500 166.000
47.63000 180.000
47.67500 176.000
47.72000 177.000
47.76500 166.000
47.81000 162.000
47.85500 187.000
47.90000 179.000
47.94500 179.000
47.99000 171.000
48.03500 182.000
48.08000 206.000
48.12500 174.000
48.17000 175.000
48.21500 172.000
48.26000 185.000
48.30500 171.000
48.35000 169.000
48.39500 167.000
48.44000 180.000
48.48500 194.000
48.53000 165.000
48.57500 175.000
48.62000 181.000
48.66500 163.000
48.71000 176.000
48.75500 167.000
48.80000 178.000
48.84500 172.000
48.89000 182.000
48.93500 168.000
48.98000 183.000
49.02500 162.000
49.07000 168.000
49.11500 182.000
49.16000 168.000
49.20500 164.000
49.25000 169.000
49.29500 165.000
49.34000 168.000
49.38500 158.000
49.43000 157.000
49.47500 150.000
49.52000 187.000
49.56500 168.000
49.61000 183.000
49.65500 193.000
49.70000 169.000
49.74500 173.000
49.79000 174.000
49.83500 165.000
49.88000 177.000
49.92500 176.000
49.97000 169.000
50.01500 164.000
50.06000 182.000
50.10500 172.000
50.15000 176.000
50.19500 160.000
50.24000 173.000
50.28500 167.000
50.33000 173.000
50.37500 158.000
50.42000 162.000
50.46500 161.000
50.51000 154.000
50.55500 176.000
50.60000 159.000
50.64500 171.000
50.69000 171.000
50.73500 174.000
50.78000 175.000
50.82500 169.000
50.87000 158.000
50.91500 148.000
50.96000 176.000
51.00500 166.000
51.05000 176.000
51.09500 162.000
51.14000 150.000
51.18500 157.000
51.23000 165.000
51.27500 167.000
51.32000 150.000
51.36500 145.000
51.41000 151.000
51.45500 175.000
51.50000 151.000
51.54500 169.000
51.59000 158.000
51.63500 166.000
51.68000 177.000
51.72500 186.000
51.77000 148.000
51.81500 168.000
51.86000 172.000
51.90500 148.000
51.95000 149.000
51.99500 154.000
52.04000 157.000
52.08500 166.000
52.13000 141.000
52.17500 150.000
52.22000 182.000
52.26500 149.000
52.31000 156.000
52.35500 170.000
52.40000 175.000
52.44500 152.000
52.49000 154.000
52.53500 166.000
52.58000 162.000
52.62500 178.000
52.67000 162.000
52.71500 150.000
52.76000 140.000
52.80500 161.000
52.85000 161.000
52.89500 154.000
52.94000 133.000
52.98500 152.000
53.03000 160.000
53.07500 169.000
53.12000 147.000
53.16500 155.000
53.21000 152.000
53.25500 165.000
53.30000 158.000
53.34500 172.000
53.39000 169.000
53.43500 170.000
53.48000 155.000
53.52500 158.000
53.57000 161.000
53.61500 134.000
53.66000 165.000
53.70500 155.000
53.75000 168.000
53.79500 149.000
53.84000 157.000
53.88500 126.000
53.93000 163.000
53.97500 158.000
54.02000 154.000
54.06500 156.000
54.11000 164.000
54.15500 145.000
54.20000 147.000
54.24500 147.000
54.29000 140.000
54.33500 131.000
54.38000 149.000
54.42500 152.000
54.47000 178.000
54.51500 155.000
54.56000 164.000
54.60500 147.000
54.65000 148.000
54.69500 168.000
54.74000 164.000
54.78500 162.000
54.83000 171.000
54.87500 134.000
54.92000 169.000
54.96500 162.000
55.01000 157.000
55.05500 153.000
55.10000 159.000
55.14500 155.000
55.19000 162.000
55.23500 142.000
55.28000 181.000
55.32500 159.000
55.37000 165.000
55.41500 157.000
55.46000 157.000
55.50500 142.000
55.55000 169.000
55.59500 164.000
55.64000 149.000
55.68500 154.000
55.73000 156.000
55.77500 143.000
55.82000 161.000
55.86500 160.000
55.91000 171.000
55.95500 163.000
56.00000 154.000
56.04500 165.000
56.09000 177.000
56.13500 163.000
56.18000 167.000
56.22500 154.000
56.27000 161.000
56.31500 169.000
56.36000 172.000
56.40500 163.000
56.45000 159.000
56.49500 167.000
56.54000 164.000
56.58500 167.000
56.63000 149.000
56.67500 165.000
56.72000 146.000
56.76500 160.000
56.81000 164.000
56.85500 162.000
56.90000 144.000
56.94500 151.000
56.99000 162.000
57.03500 172.000
57.08000 165.000
57.12500 160.000
57.17000 168.000
57.21500 166.000
57.26000 136.000
57.30500 158.000
57.35000 162.000
57.39500 145.000
57.44000 137.000
57.48500 146.000
57.53000 151.000
57.57500 146.000
57.62000 147.000
57.66500 168.000
57.71000 140.000
57.75500 139.000
57.80000 138.000
57.84500 137.000
57.89000 152.000
57.93500 134.000
57.98000 142.000
58.02500 132.000
58.07000 134.000
58.11500 143.000
58.16000 130.000
58.20500 131.000
58.25000 156.000
58.29500 156.000
58.34000 135.000
58.38500 130.000
58.43000 122.000
58.47500 124.000
58.52000 146.000
58.56500 146.000
58.61000 151.000
58.65500 116.000
58.70000 129.000
58.74500 122.000
58.79000 137.000
58.83500 127.000
58.88000 120.000
58.92500 138.000
58.97000 129.000
59.01500 119.000
59.06000 117.000
59.10500 124.000
59.15000 141.000
59.19500 125.000
59.24000 121.000
59.28500 119.000
59.33000 129.000
59.37500 117.000
59.42000 128.000
59.46500 137.000
59.51000 130.000
59.55500 112.000
59.60000 130.000
59.64500 122.000
59.69000 122.000
59.73500 124.000
59.78000 118.000
59.82500 133.000
59.87000 116.000
59.91500 112.000
59.96000 126.000
60.00500 114.000
60.05000 120.000
60.09500 129.000
60.14000 125.000
60.18500 112.000
60.23000 104.000
60.27500 110.000
60.32000 121.000
60.36500 111.000
60.41000 113.000
60.45500 109.000
60.50000 133.000
60.54500 111.000
60.59000 128.000
60.63500 113.000
60.68000 117.000
60.72500 127.000
60.77000 113.000
60.81500 111.000
60.86000 113.000
60.90500 123.000
60.95000 124.000
60.99500 123.000
61.04000 98.000
61.08500 115.000
61.13000 120.000
61.17500 120.000
61.22000 113.000
61.26500 109.000
61.31000 117.000
61.35500 119.000
61.40000 133.000
61.44500 102.000
61.49000 116.000
61.53500 113.000
61.58000 123.000
61.62500 97.000
61.67000 111.000
61.71500 118.000
61.76000 123.000
61.80500 115.000
61.85000 110.000
61.89500 111.000
61.94000 111.000
61.98500 99.000