File: ISoD/xrd_data/HSC208.xy
2.00000 2.000
2.04500 1.000
2.09000 3.000
2.13500 0.000
2.18000 2.000
2.22500 2.000
2.27000 2.000
2.31500 0.000
2.36000 1.000
2.40500 1.000
2.45000 1.000
2.49500 1.000
2.54000 2.000
2.58500 1.000
2.63000 2.000
2.67500 7.000
2.72000 8.000
2.76500 44.000
2.81000 90.000
2.85500 162.000
2.90000 153.000
2.94500 155.000
2.99000 148.000
3.03500 136.000
3.08000 136.000
3.12500 154.000
3.17000 144.000
3.21500 137.000
3.26000 140.000
3.30500 133.000
3.35000 145.000
3.39500 144.000
3.44000 128.000
3.48500 143.000
3.53000 151.000
3.57500 153.000
3.62000 145.000
3.66500 137.000
3.71000 144.000
3.75500 151.000
3.80000 174.000
3.84500 161.000
3.89000 171.000
3.93500 152.000
3.98000 156.000
4.02500 154.000
4.07000 156.000
4.11500 156.000
4.16000 151.000
4.20500 164.000
4.25000 147.000
4.29500 150.000
4.34000 142.000
4.38500 160.000
4.43000 148.000
4.47500 158.000
4.52000 156.000
4.56500 155.000
4.61000 168.000
4.65500 151.000
4.70000 145.000
4.74500 176.000
4.79000 141.000
4.83500 165.000
4.88000 161.000
4.92500 158.000
4.97000 171.000
5.01500 179.000
5.06000 207.000
5.10500 174.000
5.15000 185.000
5.19500 183.000
5.24000 162.000
5.28500 169.000
5.33000 169.000
5.37500 170.000
5.42000 170.000
5.46500 164.000
5.51000 189.000
5.55500 185.000
5.60000 191.000
5.64500 191.000
5.69000 191.000
5.73500 190.000
5.78000 184.000
5.82500 178.000
5.87000 171.000
5.91500 196.000
5.96000 189.000
6.00500 168.000
6.05000 193.000
6.09500 158.000
6.14000 187.000
6.18500 169.000
6.23000 181.000
6.27500 201.000
6.32000 180.000
6.36500 179.000
6.41000 198.000
6.45500 190.000
6.50000 195.000
6.54500 210.000
6.59000 191.000
6.63500 206.000
6.68000 195.000
6.72500 196.000
6.77000 222.000
6.81500 199.000
6.86000 194.000
6.90500 179.000
6.95000 188.000
6.99500 193.000
7.04000 190.000
7.08500 214.000
7.13000 208.000
7.17500 209.000
7.22000 212.000
7.26500 199.000
7.31000 197.000
7.35500 204.000
7.40000 224.000
7.44500 218.000
7.49000 248.000
7.53500 219.000
7.58000 239.000
7.62500 217.000
7.67000 266.000
7.71500 297.000
7.76000 314.000
7.80500 362.000
7.85000 410.000
7.89500 522.000
7.94000 677.000
7.98500 729.000
8.03000 508.000
8.07500 433.000
8.12000 329.000
8.16500 343.000
8.21000 328.000
8.25500 323.000
8.30000 296.000
8.34500 280.000
8.39000 282.000
8.43500 275.000
8.48000 256.000
8.52500 271.000
8.57000 257.000
8.61500 259.000
8.66000 250.000
8.70500 271.000
8.75000 260.000
8.79500 257.000
8.84000 226.000
8.88500 250.000
8.93000 233.000
8.97500 239.000
9.02000 245.000
9.06500 255.000
9.11000 242.000
9.15500 237.000
9.20000 247.000
9.24500 220.000
9.29000 249.000
9.33500 237.000
9.38000 251.000
9.42500 247.000
9.47000 228.000
9.51500 249.000
9.56000 261.000
9.60500 250.000
9.65000 251.000
9.69500 264.000
9.74000 281.000
9.78500 262.000
9.83000 289.000
9.87500 297.000
9.92000 309.000
9.96500 350.000
10.01000 389.000
10.05500 368.000
10.10000 365.000
10.14500 350.000
10.19000 329.000
10.23500 294.000
10.28000 266.000
10.32500 269.000
10.37000 249.000
10.41500 242.000
10.46000 235.000
10.50500 221.000
10.55000 219.000
10.59500 233.000
10.64000 239.000
10.68500 205.000
10.73000 215.000
10.77500 238.000
10.82000 236.000
10.86500 188.000
10.91000 234.000
10.95500 210.000
11.00000 231.000
11.04500 222.000
11.09000 223.000
11.13500 213.000
11.18000 219.000
11.22500 217.000
11.27000 230.000
11.31500 210.000
11.36000 215.000
11.40500 259.000
11.45000 221.000
11.49500 211.000
11.54000 229.000
11.58500 236.000
11.63000 227.000
11.67500 216.000
11.72000 199.000
11.76500 209.000
11.81000 213.000
11.85500 206.000
11.90000 236.000
11.94500 214.000
11.99000 220.000
12.03500 212.000
12.08000 193.000
12.12500 233.000
12.17000 219.000
12.21500 210.000
12.26000 208.000
12.30500 199.000
12.35000 217.000
12.39500 209.000
12.44000 207.000
12.48500 220.000
12.53000 233.000
12.57500 220.000
12.62000 205.000
12.66500 212.000
12.71000 235.000
12.75500 219.000
12.80000 208.000
12.84500 199.000
12.89000 212.000
12.93500 198.000
12.98000 210.000
13.02500 213.000
13.07000 212.000
13.11500 213.000
13.16000 212.000
13.20500 216.000
13.25000 204.000
13.29500 215.000
13.34000 199.000
13.38500 221.000
13.43000 209.000
13.47500 226.000
13.52000 212.000
13.56500 199.000
13.61000 200.000
13.65500 211.000
13.70000 200.000
13.74500 200.000
13.79000 204.000
13.83500 207.000
13.88000 223.000
13.92500 196.000
13.97000 224.000
14.01500 222.000
14.06000 233.000
14.10500 211.000
14.15000 222.000
14.19500 187.000
14.24000 233.000
14.28500 207.000
14.33000 228.000
14.37500 202.000
14.42000 226.000
14.46500 213.000
14.51000 218.000
14.55500 201.000
14.60000 201.000
14.64500 207.000
14.69000 212.000
14.73500 216.000
14.78000 217.000
14.82500 208.000
14.87000 247.000
14.91500 239.000
14.96000 201.000
15.00500 242.000
15.05000 250.000
15.09500 238.000
15.14000 244.000
15.18500 255.000
15.23000 237.000
15.27500 246.000
15.32000 243.000
15.36500 228.000
15.41000 231.000
15.45500 215.000
15.50000 225.000
15.54500 209.000
15.59000 209.000
15.63500 223.000
15.68000 189.000
15.72500 211.000
15.77000 213.000
15.81500 217.000
15.86000 208.000
15.90500 198.000
15.95000 213.000
15.99500 199.000
16.04000 211.000
16.08500 231.000
16.13000 216.000
16.17500 203.000
16.22000 210.000
16.26500 211.000
16.31000 205.000
16.35500 186.000
16.40000 213.000
16.44500 212.000
16.49000 227.000
16.53500 180.000
16.58000 218.000
16.62500 218.000
16.67000 206.000
16.71500 232.000
16.76000 199.000
16.80500 236.000
16.85000 191.000
16.89500 200.000
16.94000 219.000
16.98500 218.000
17.03000 207.000
17.07500 228.000
17.12000 213.000
17.16500 196.000
17.21000 236.000
17.25500 201.000
17.30000 202.000
17.34500 203.000
17.39000 223.000
17.43500 197.000
17.48000 229.000
17.52500 220.000
17.57000 228.000
17.61500 214.000
17.66000 201.000
17.70500 219.000
17.75000 227.000
17.79500 232.000
17.84000 244.000
17.88500 226.000
17.93000 223.000
17.97500 193.000
18.02000 208.000
18.06500 210.000
18.11000 243.000
18.15500 223.000
18.20000 211.000
18.24500 233.000
18.29000 225.000
18.33500 211.000
18.38000 244.000
18.42500 237.000
18.47000 242.000
18.51500 246.000
18.56000 267.000
18.60500 245.000
18.65000 266.000
18.69500 258.000
18.74000 254.000
18.78500 221.000
18.83000 224.000
18.87500 242.000
18.92000 227.000
18.96500 222.000
19.01000 223.000
19.05500 228.000
19.10000 246.000
19.14500 218.000
19.19000 221.000
19.23500 246.000
19.28000 230.000
19.32500 238.000
19.37000 201.000
19.41500 221.000
19.46000 243.000
19.50500 217.000
19.55000 243.000
19.59500 235.000
19.64000 232.000
19.68500 227.000
19.73000 204.000
19.77500 219.000
19.82000 207.000
19.86500 235.000
19.91000 215.000
19.95500 219.000
20.00000 235.000
20.04500 247.000
20.09000 219.000
20.13500 245.000
20.18000 243.000
20.22500 258.000
20.27000 242.000
20.31500 252.000
20.36000 238.000
20.40500 246.000
20.45000 229.000
20.49500 252.000
20.54000 225.000
20.58500 238.000
20.63000 244.000
20.67500 231.000
20.72000 229.000
20.76500 238.000
20.81000 252.000
20.85500 234.000
20.90000 245.000
20.94500 229.000
20.99000 234.000
21.03500 268.000
21.08000 259.000
21.12500 238.000
21.17000 256.000
21.21500 268.000
21.26000 257.000
21.30500 252.000
21.35000 290.000
21.39500 259.000
21.44000 277.000
21.48500 237.000
21.53000 256.000
21.57500 274.000
21.62000 254.000
21.66500 281.000
21.71000 281.000
21.75500 248.000
21.80000 270.000
21.84500 266.000
21.89000 297.000
21.93500 287.000
21.98000 292.000
22.02500 322.000
22.07000 348.000
22.11500 312.000
22.16000 316.000
22.20500 317.000
22.25000 309.000
22.29500 305.000
22.34000 282.000
22.38500 278.000
22.43000 296.000
22.47500 277.000
22.52000 296.000
22.56500 264.000
22.61000 275.000
22.65500 283.000
22.70000 302.000
22.74500 295.000
22.79000 328.000
22.83500 316.000
22.88000 330.000
22.92500 334.000
22.97000 340.000
23.01500 383.000
23.06000 344.000
23.10500 344.000
23.15000 331.000
23.19500 318.000
23.24000 326.000
23.28500 332.000
23.33000 313.000
23.37500 297.000
23.42000 313.000
23.46500 314.000
23.51000 316.000
23.55500 305.000
23.60000 289.000
23.64500 319.000
23.69000 308.000
23.73500 295.000
23.78000 296.000
23.82500 334.000
23.87000 279.000
23.91500 302.000
23.96000 303.000
24.00500 306.000
24.05000 323.000
24.09500 301.000
24.14000 294.000
24.18500 307.000
24.23000 325.000
24.27500 327.000
24.32000 323.000
24.36500 343.000
24.41000 308.000
24.45500 355.000
24.50000 327.000
24.54500 357.000
24.59000 366.000
24.63500 358.000
24.68000 371.000
24.72500 375.000
24.77000 332.000
24.81500 352.000
24.86000 322.000
24.90500 329.000
24.95000 343.000
24.99500 341.000
25.04000 327.000
25.08500 331.000
25.13000 339.000
25.17500 337.000
25.22000 343.000
25.26500 305.000
25.31000 342.000
25.35500 362.000
25.40000 324.000
25.44500 375.000
25.49000 353.000
25.53500 358.000
25.58000 357.000
25.62500 409.000
25.67000 374.000
25.71500 384.000
25.76000 349.000
25.80500 373.000
25.85000 386.000
25.89500 378.000
25.94000 401.000
25.98500 381.000
26.03000 357.000
26.07500 425.000
26.12000 386.000
26.16500 390.000
26.21000 337.000
26.25500 376.000
26.30000 381.000
26.34500 357.000
26.39000 399.000
26.43500 397.000
26.48000 355.000
26.52500 382.000
26.57000 385.000
26.61500 390.000
26.66000 430.000
26.70500 415.000
26.75000 428.000
26.79500 415.000
26.84000 443.000
26.88500 440.000
26.93000 418.000
26.97500 408.000
27.02000 439.000
27.06500 482.000
27.11000 454.000
27.15500 465.000
27.20000 479.000
27.24500 498.000
27.29000 490.000
27.33500 545.000
27.38000 541.000
27.42500 580.000
27.47000 597.000
27.51500 664.000
27.56000 692.000
27.60500 772.000
27.65000 882.000
27.69500 917.000
27.74000 1036.000
27.78500 1051.000
27.83000 1021.000
27.87500 1090.000
27.92000 1078.000
27.96500 1095.000
28.01000 1046.000
28.05500 1074.000
28.10000 985.000
28.14500 988.000
28.19000 916.000
28.23500 834.000
28.28000 796.000
28.32500 791.000
28.37000 712.000
28.41500 647.000
28.46000 640.000
28.50500 575.000
28.55000 555.000
28.59500 490.000
28.64000 508.000
28.68500 500.000
28.73000 494.000
28.77500 477.000
28.82000 495.000
28.86500 434.000
28.91000 454.000
28.95500 441.000
29.00000 461.000
29.04500 458.000
29.09000 487.000
29.13500 449.000
29.18000 469.000
29.22500 431.000
29.27000 411.000
29.31500 413.000
29.36000 412.000
29.40500 398.000
29.45000 396.000
29.49500 398.000
29.54000 412.000
29.58500 379.000
29.63000 387.000
29.67500 377.000
29.72000 374.000
29.76500 389.000
29.81000 372.000
29.85500 352.000
29.90000 339.000
29.94500 368.000
29.99000 375.000
30.03500 345.000
30.08000 361.000
30.12500 339.000
30.17000 369.000
30.21500 352.000
30.26000 348.000
30.30500 348.000
30.35000 356.000
30.39500 358.000
30.44000 364.000
30.48500 355.000
30.53000 366.000
30.57500 344.000
30.62000 364.000
30.66500 351.000
30.71000 332.000
30.75500 349.000
30.80000 317.000
30.84500 305.000
30.89000 342.000
30.93500 311.000
30.98000 314.000
31.02500 299.000
31.07000 329.000
31.11500 290.000
31.16000 315.000
31.20500 305.000
31.25000 302.000
31.29500 281.000
31.34000 303.000
31.38500 281.000
31.43000 290.000
31.47500 287.000
31.52000 290.000
31.56500 279.000
31.61000 280.000
31.65500 285.000
31.70000 295.000
31.74500 279.000
31.79000 289.000
31.83500 320.000
31.88000 298.000
31.92500 301.000
31.97000 292.000
32.01500 303.000
32.06000 308.000
32.10500 267.000
32.15000 275.000
32.19500 312.000
32.24000 278.000
32.28500 336.000
32.33000 323.000
32.37500 331.000
32.42000 306.000
32.46500 304.000
32.51000 273.000
32.55500 286.000
32.60000 303.000
32.64500 286.000
32.69000 269.000
32.73500 247.000
32.78000 253.000
32.82500 250.000
32.87000 236.000
32.91500 245.000
32.96000 240.000
33.00500 242.000
33.05000 221.000
33.09500 243.000
33.14000 238.000
33.18500 213.000
33.23000 234.000
33.27500 220.000
33.32000 230.000
33.36500 206.000
33.41000 240.000
33.45500 214.000
33.50000 216.000
33.54500 208.000
33.59000 241.000
33.63500 209.000
33.68000 217.000
33.72500 254.000
33.77000 218.000
33.81500 211.000
33.86000 200.000
33.90500 210.000
33.95000 211.000
33.99500 211.000
34.04000 225.000
34.08500 214.000
34.13000 190.000
34.17500 212.000
34.22000 228.000
34.26500 214.000
34.31000 231.000
34.35500 217.000
34.40000 199.000
34.44500 229.000
34.49000 204.000
34.53500 200.000
34.58000 234.000
34.62500 196.000
34.67000 207.000
34.71500 250.000
34.76000 195.000
34.80500 216.000
34.85000 198.000
34.89500 207.000
34.94000 216.000
34.98500 231.000
35.03000 231.000
35.07500 216.000
35.12000 242.000
35.16500 266.000
35.21000 223.000
35.25500 223.000
35.30000 289.000
35.34500 292.000
35.39000 325.000
35.43500 380.000
35.48000 356.000
35.52500 317.000
35.57000 295.000
35.61500 280.000
35.66000 281.000
35.70500 209.000
35.75000 245.000
35.79500 230.000
35.84000 249.000
35.88500 245.000
35.93000 250.000
35.97500 248.000
36.02000 226.000
36.06500 249.000
36.11000 234.000
36.15500 235.000
36.20000 241.000
36.24500 248.000
36.29000 245.000
36.33500 259.000
36.38000 238.000
36.42500 284.000
36.47000 235.000
36.51500 276.000
36.56000 251.000
36.60500 266.000
36.65000 256.000
36.69500 231.000
36.74000 252.000
36.78500 246.000
36.83000 226.000
36.87500 236.000
36.92000 242.000
36.96500 225.000
37.01000 216.000
37.05500 244.000
37.10000 241.000
37.14500 223.000
37.19000 230.000
37.23500 247.000
37.28000 243.000
37.32500 263.000
37.37000 251.000
37.41500 257.000
37.46000 237.000
37.50500 224.000
37.55000 236.000
37.59500 262.000
37.64000 246.000
37.68500 247.000
37.73000 235.000
37.77500 254.000
37.82000 229.000
37.86500 218.000
37.91000 226.000
37.95500 233.000
38.00000 217.000
38.04500 218.000
38.09000 234.000
38.13500 202.000
38.18000 210.000
38.22500 228.000
38.27000 229.000
38.31500 229.000
38.36000 227.000
38.40500 214.000
38.45000 226.000
38.49500 235.000
38.54000 211.000
38.58500 214.000
38.63000 250.000
38.67500 211.000
38.72000 212.000
38.76500 216.000
38.81000 213.000
38.85500 221.000
38.90000 185.000
38.94500 187.000
38.99000 220.000
39.03500 208.000
39.08000 209.000
39.12500 194.000
39.17000 215.000
39.21500 195.000
39.26000 208.000
39.30500 216.000
39.35000 193.000
39.39500 205.000
39.44000 186.000
39.48500 182.000
39.53000 189.000
39.57500 198.000
39.62000 229.000
39.66500 197.000
39.71000 193.000
39.75500 180.000
39.80000 180.000
39.84500 178.000
39.89000 220.000
39.93500 215.000
39.98000 201.000
40.02500 202.000
40.07000 222.000
40.11500 200.000
40.16000 218.000
40.20500 205.000
40.25000 192.000
40.29500 219.000
40.34000 195.000
40.38500 195.000
40.43000 193.000
40.47500 205.000
40.52000 186.000
40.56500 200.000
40.61000 198.000
40.65500 176.000
40.70000 167.000
40.74500 176.000
40.79000 200.000
40.83500 200.000
40.88000 194.000
40.92500 164.000
40.97000 192.000
41.01500 173.000
41.06000 168.000
41.10500 185.000
41.15000 184.000
41.19500 190.000
41.24000 169.000
41.28500 181.000
41.33000 178.000
41.37500 165.000
41.42000 182.000
41.46500 203.000
41.51000 184.000
41.55500 172.000
41.60000 165.000
41.64500 189.000
41.69000 169.000
41.73500 159.000
41.78000 164.000
41.82500 167.000
41.87000 166.000
41.91500 163.000
41.96000 152.000
42.00500 168.000
42.05000 157.000
42.09500 178.000
42.14000 154.000
42.18500 167.000
42.23000 163.000
42.27500 167.000
42.32000 170.000
42.36500 172.000
42.41000 177.000
42.45500 180.000
42.50000 173.000
42.54500 187.000
42.59000 191.000
42.63500 185.000
42.68000 184.000
42.72500 202.000
42.77000 176.000
42.81500 211.000
42.86000 180.000
42.90500 181.000
42.95000 191.000
42.99500 198.000
43.04000 204.000
43.08500 221.000
43.13000 227.000
43.17500 214.000
43.22000 247.000
43.26500 273.000
43.31000 283.000
43.35500 254.000
43.40000 224.000
43.44500 218.000
43.49000 227.000
43.53500 212.000
43.58000 213.000
43.62500 206.000
43.67000 182.000
43.71500 192.000
43.76000 206.000
43.80500 202.000
43.85000 179.000
43.89500 187.000
43.94000 176.000
43.98500 163.000
44.03000 195.000
44.07500 203.000
44.12000 219.000
44.16500 201.000
44.21000 187.000
44.25500 195.000
44.30000 207.000
44.34500 207.000
44.39000 219.000
44.43500 203.000
44.48000 187.000
44.52500 193.000
44.57000 189.000
44.61500 201.000
44.66000 190.000
44.70500 184.000
44.75000 192.000
44.79500 179.000
44.84000 176.000
44.88500 190.000
44.93000 191.000
44.97500 175.000
45.02000 180.000
45.06500 194.000
45.11000 193.000
45.15500 203.000
45.20000 193.000
45.24500 184.000
45.29000 179.000
45.33500 187.000
45.38000 181.000
45.42500 181.000
45.47000 159.000
45.51500 196.000
45.56000 179.000
45.60500 179.000
45.65000 177.000
45.69500 154.000
45.74000 164.000
45.78500 180.000
45.83000 147.000
45.87500 162.000
45.92000 162.000
45.96500 182.000
46.01000 172.000
46.05500 169.000
46.10000 163.000
46.14500 183.000
46.19000 186.000
46.23500 162.000
46.28000 194.000
46.32500 152.000
46.37000 173.000
46.41500 177.000
46.46000 154.000
46.50500 169.000
46.55000 182.000
46.59500 155.000
46.64000 156.000
46.68500 161.000
46.73000 157.000
46.77500 160.000
46.82000 138.000
46.86500 154.000
46.91000 143.000
46.95500 159.000
47.00000 154.000
47.04500 164.000
47.09000 147.000
47.13500 154.000
47.18000 165.000
47.22500 165.000
47.27000 163.000
47.31500 148.000
47.36000 160.000
47.40500 137.000
47.45000 162.000
47.49500 157.000
47.54000 140.000
47.58500 142.000
47.63000 139.000
47.67500 142.000
47.72000 127.000
47.76500 152.000
47.81000 132.000
47.85500 130.000
47.90000 139.000
47.94500 139.000
47.99000 149.000
48.03500 145.000
48.08000 129.000
48.12500 142.000
48.17000 137.000
48.21500 147.000
48.26000 120.000
48.30500 129.000
48.35000 159.000
48.39500 150.000
48.44000 130.000
48.48500 130.000
48.53000 134.000
48.57500 135.000
48.62000 144.000
48.66500 135.000
48.71000 122.000
48.75500 131.000
48.80000 143.000
48.84500 155.000
48.89000 143.000
48.93500 125.000
48.98000 143.000
49.02500 130.000
49.07000 146.000
49.11500 128.000
49.16000 126.000
49.20500 133.000
49.25000 135.000
49.29500 126.000
49.34000 146.000
49.38500 123.000
49.43000 144.000
49.47500 140.000
49.52000 143.000
49.56500 140.000
49.61000 149.000
49.65500 139.000
49.70000 137.000
49.74500 143.000
49.79000 135.000
49.83500 125.000
49.88000 132.000
49.92500 127.000
49.97000 123.000
50.01500 135.000
50.06000 157.000
50.10500 139.000
50.15000 155.000
50.19500 141.000
50.24000 140.000
50.28500 118.000
50.33000 119.000
50.37500 139.000
50.42000 143.000
50.46500 128.000
50.51000 135.000
50.55500 134.000
50.60000 130.000
50.64500 149.000
50.69000 129.000
50.73500 130.000
50.78000 128.000
50.82500 127.000
50.87000 127.000
50.91500 130.000
50.96000 136.000
51.00500 137.000
51.05000 126.000
51.09500 145.000
51.14000 144.000
51.18500 124.000
51.23000 121.000
51.27500 122.000
51.32000 138.000
51.36500 124.000
51.41000 137.000
51.45500 126.000
51.50000 140.000
51.54500 123.000
51.59000 145.000
51.63500 146.000
51.68000 139.000
51.72500 144.000
51.77000 136.000
51.81500 132.000
51.86000 133.000
51.90500 142.000
51.95000 135.000
51.99500 129.000
52.04000 131.000
52.08500 119.000
52.13000 134.000
52.17500 137.000
52.22000 143.000
52.26500 131.000
52.31000 134.000
52.35500 132.000
52.40000 124.000
52.44500 139.000
52.49000 128.000
52.53500 128.000
52.58000 147.000
52.62500 140.000
52.67000 120.000
52.71500 140.000
52.76000 127.000
52.80500 121.000
52.85000 127.000
52.89500 139.000
52.94000 140.000
52.98500 150.000
53.03000 140.000
53.07500 139.000
53.12000 145.000
53.16500 132.000
53.21000 124.000
53.25500 129.000
53.30000 122.000
53.34500 144.000
53.39000 126.000
53.43500 133.000
53.48000 132.000
53.52500 137.000
53.57000 126.000
53.61500 132.000
53.66000 121.000
53.70500 123.000
53.75000 126.000
53.79500 131.000
53.84000 132.000
53.88500 115.000
53.93000 139.000
53.97500 134.000
54.02000 127.000
54.06500 125.000
54.11000 118.000
54.15500 125.000
54.20000 128.000
54.24500 117.000
54.29000 131.000
54.33500 128.000
54.38000 131.000
54.42500 130.000
54.47000 122.000
54.51500 124.000
54.56000 123.000
54.60500 131.000
54.65000 122.000
54.69500 127.000
54.74000 117.000
54.78500 126.000
54.83000 115.000
54.87500 118.000
54.92000 114.000
54.96500 131.000
55.01000 117.000
55.05500 114.000
55.10000 126.000
55.14500 104.000
55.19000 133.000
55.23500 144.000
55.28000 115.000
55.32500 108.000
55.37000 117.000
55.41500 131.000
55.46000 126.000
55.50500 127.000
55.55000 121.000
55.59500 116.000
55.64000 121.000
55.68500 119.000
55.73000 111.000
55.77500 111.000
55.82000 113.000
55.86500 108.000
55.91000 105.000
55.95500 121.000
56.00000 116.000
56.04500 127.000
56.09000 104.000
56.13500 114.000
56.18000 118.000
56.22500 125.000
56.27000 113.000
56.31500 127.000
56.36000 115.000
56.40500 113.000
56.45000 128.000
56.49500 122.000
56.54000 112.000
56.58500 136.000
56.63000 117.000
56.67500 121.000
56.72000 134.000
56.76500 127.000
56.81000 123.000
56.85500 123.000
56.90000 110.000
56.94500 114.000
56.99000 124.000
57.03500 121.000
57.08000 123.000
57.12500 139.000
57.17000 127.000
57.21500 139.000
57.26000 114.000
57.30500 119.000
57.35000 126.000
57.39500 129.000
57.44000 118.000
57.48500 117.000
57.53000 134.000
57.57500 146.000
57.62000 123.000
57.66500 119.000
57.71000 122.000
57.75500 143.000
57.80000 142.000
57.84500 137.000
57.89000 138.000
57.93500 131.000
57.98000 122.000
58.02500 139.000
58.07000 145.000
58.11500 146.000
58.16000 117.000
58.20500 137.000
58.25000 126.000
58.29500 125.000
58.34000 129.000
58.38500 122.000
58.43000 115.000
58.47500 134.000
58.52000 130.000
58.56500 134.000
58.61000 112.000
58.65500 133.000
58.70000 145.000
58.74500 128.000
58.79000 130.000
58.83500 121.000
58.88000 128.000
58.92500 129.000
58.97000 124.000
59.01500 123.000
59.06000 126.000
59.10500 120.000
59.15000 144.000
59.19500 122.000
59.24000 102.000
59.28500 111.000
59.33000 112.000
59.37500 112.000
59.42000 122.000
59.46500 114.000
59.51000 118.000
59.55500 114.000
59.60000 129.000
59.64500 115.000
59.69000 109.000
59.73500 99.000
59.78000 121.000
59.82500 112.000
59.87000 107.000
59.91500 119.000
59.96000 114.000
60.00500 111.000
60.05000 115.000
60.09500 110.000
60.14000 112.000
60.18500 102.000
60.23000 105.000
60.27500 99.000
60.32000 119.000
60.36500 114.000
60.41000 129.000
60.45500 133.000
60.50000 122.000
60.54500 121.000
60.59000 108.000
60.63500 116.000
60.68000 113.000
60.72500 95.000
60.77000 110.000
60.81500 109.000
60.86000 118.000
60.90500 104.000
60.95000 101.000
60.99500 106.000
61.04000 103.000
61.08500 109.000
61.13000 98.000
61.17500 112.000
61.22000 107.000
61.26500 107.000
61.31000 108.000
61.35500 106.000
61.40000 107.000
61.44500 110.000
61.49000 103.000
61.53500 102.000
61.58000 122.000
61.62500 110.000
61.67000 111.000
61.71500 102.000
61.76000 94.000
61.80500 117.000
61.85000 115.000
61.89500 107.000
61.94000 106.000
61.98500 102.000